time,accelerometerAccelerationX,accelerometerAccelerationY,accelerometerAccelerationZ,gyroRotationX,gyroRotationY,gyroRotationZ
0.0,0.0577239990234375,-0.9698028564453125,0.238983154296875,-0.008307464704393176,0.04448517653257459,-0.01861496338743586
0.059388000052422285,0.0567626953125,-0.9534912109375,0.23272705078125,0.002105495157816646,-0.006464290913949335,-0.009520800897033277
0.1187840000493452,0.0567779541015625,-0.9568939208984375,0.2367095947265625,0.00104928546949122,-0.004317783075345469,-0.007413175210344567
0.17814000009093434,0.0531005859375,-0.9555816650390625,0.236480712890625,0.002119343595485058,-0.003267964973636233,-0.008490157555172611
0.2375280000269413,0.0562744140625,-0.9557952880859375,0.2359771728515625,-9.587379924285257e-06,-0.00327089445083532,-0.009557019887858354
0.2968990000663325,0.05682373046875,-0.956329345703125,0.2362823486328125,-2.23705531566656e-05,-0.006485862518778977,-0.01271925736621844
0.3562699999893084,0.0579071044921875,-0.956207275390625,0.23419189453125,-0.003208043849109451,-0.004332963093558921,-0.01061269694396576
0.4156450000591576,0.054107666015625,-0.955413818359375,0.239044189453125,-0.005332713766774667,-0.003264236548110122,-0.01062548011719814
0.4750179999973625,0.0581207275390625,-0.9576263427734375,0.2399444580078125,-0.004253068260856543,-8.974852873567033e-05,-0.01172589827961889
0.5343910000519827,0.05657958984375,-0.9533538818359375,0.221649169921875,-0.007459514213311946,-0.002158225747400215,-0.00637507501743168
0.5937680000206456,0.0689239501953125,-0.9581146240234375,0.244415283203125,-0.02334154169010849,0.01811135962530188,-0.002342516494833698
0.6531380000524223,0.0035247802734375,-0.9486541748046875,0.24652099609375,-0.002206162647021641,-0.01011362055568491,0.05766915550901185
0.7124940000940114,0.0698394775390625,-0.95953369140625,0.22686767578125,-0.03620727291628129,0.001366734271428665,0.02235191102903505
0.771896000020206,0.0299224853515625,-0.950347900390625,0.2220458984375,-0.04164171943669698,-0.01960299615185526,0.05242592395486385
0.8312670000595972,0.0601654052734375,-0.9568634033203125,0.226837158203125,-0.0278524039444847,-0.02904709800949425,0.07065685951311028
0.890625,0.01336669921875,-0.95477294921875,0.249664306640625,-0.03418060732673099,-0.01403405999639056,0.08434497488389955
0.9500110000371933,0.0550994873046875,-0.9616851806640625,0.215911865234375,-0.07666495093232904,0.008328237360895793,0.07555121696445791
1.00940000009723,0.03448486328125,-0.9663543701171875,0.236328125,-0.1066851680041383,-0.02806492419947303,0.155881210188954
1.0687570000300184,0.0828857421875,-0.9768218994140625,0.260040283203125,-0.1437904588399943,0.01279782061837578,0.1991149673253003
1.128129000077024,0.1616668701171875,-1.014739990234375,0.33636474609375,-0.3072041538561284,-0.03968908972545088,0.7016566608165608
1.1874970000935718,0.0633392333984375,-1.222457885742188,0.3423919677734375,-0.8446012996943458,0.1585430396984882,1.802425295236756
1.2468680000165477,0.2068328857421875,-1.558303833007812,0.07647705078125,-0.8408915162958654,1.208608282756883,1.723690535505218
1.3062400000635535,-0.238861083984375,-1.135086059570312,0.365264892578125,-0.7332108586762556,0.7948728916076232,1.953210280363735
1.3656150000169873,-0.0421295166015625,-0.206817626953125,0.154510498046875,0.06354888256368879,0.5266233276483019,1.07504249829003
1.424972000066191,0.3378143310546875,-0.254302978515625,-0.005523681640625,0.4741215036023708,0.8653135024402191,-1.240439715686055
1.4843289999989793,0.2072601318359375,-0.6528778076171875,0.07708740234375,1.495568950218992,-0.2090488245074049,-2.98044956971906
1.5437150000361726,0.0697479248046875,-1.136764526367188,0.1595001220703125,1.850178436742967,-1.954724287443445,-3.838260681052418
1.6031030000885949,-0.124755859375,-1.376266479492188,0.3601531982421875,1.058408926753613,-1.384363598896662,-3.766046404933829
1.6624660000670701,-0.6698150634765625,-1.335403442382812,0.260833740234375,1.45770838689799,-0.9942813392850502,-2.516664859571724
1.72183000005316,1.629867553710938,-0.5297088623046875,1.27606201171875,-0.4932760234266567,0.3572753107751442,1.564832976481991
1.7811990000773221,0.133148193359375,-1.151535034179688,0.0054473876953125,-0.2713542771581357,-0.2293695425730365,1.743018693432577
1.8405750000383705,-0.4790496826171875,-0.834991455078125,0.6724395751953125,-0.09198558405133689,-1.046621509452814,1.900278888433974
1.8999489999841899,0.3605804443359375,-0.9028778076171875,0.38336181640625,-0.1147300450250496,0.5912345451708233,0.5050557175602951
1.959320000023581,0.1169586181640625,-0.8656463623046875,0.4345245361328125,-0.2929546441275504,0.3116076907185744,0.9067040857861216
2.0186870000325143,0.0242156982421875,-0.94781494140625,0.3157501220703125,-0.2981664503808355,0.3325907369473087,0.8744931524016132
2.0780769999837503,0.045074462890625,-0.915008544921875,0.33233642578125,-0.3597797474642547,0.3646927470432328,0.8794397078103263
2.1374480000231415,0.1375732421875,-0.93707275390625,0.27978515625,-0.37985518839349,0.3941446455384192,0.8386011977583973
2.1968190000625327,-0.0045623779296875,-0.99908447265625,0.417083740234375,-0.5909447932442227,0.1751798070282132,1.48365609803085
2.256188000086695,0.045867919921875,-1.135025024414062,0.397003173828125,-0.824746368503369,0.2988626006897822,1.696428288058295
2.3155580000020564,0.4088897705078125,-1.720962524414062,0.3223724365234375,-1.374590064012181,1.220628992969174,2.307421890620852
2.3749270000262186,0.7691192626953125,-1.695068359375,0.6090545654296875,-1.732670714700965,1.924671846122446,2.871875687869838
2.434302000096068,-0.30303955078125,-0.6326446533203125,0.2457122802734375,-1.572103938890125,0.3194091548158525,3.667767771226635
2.4936790000647306,0.3087310791015625,-0.1323089599609375,0.109954833984375,0.03640967315912731,0.7346822551785244,-0.1701051535710672
2.553061875049025,-0.1697998046875,-0.1715240478515625,-0.00390625,1.566068683227788,-1.093526434151834,-2.893913878522462
2.612435874994844,-0.152618408203125,-0.6465911865234375,0.1233062744140625,1.904913853995148,-1.448409161003651,-4.359716677237639
2.6717808750690892,-0.144927978515625,-1.23919677734375,0.0936737060546875,2.302173332744524,-0.661870365711322,-5.887116261437476
2.7311608750605956,-0.57379150390625,-2.02886962890625,-0.1500396728515625,2.327693340206317,0.5533343007495786,-5.541302663361815
2.790523875039071,-1.449905395507812,-1.553787231445312,-0.191192626953125,-0.1566471353184608,-2.011972929816333,1.196745764313343
2.849911875091493,2.181243896484375,-2.503204345703125,-1.1964111328125,0.64234433491497,-1.417489061799504,1.415465325687153
2.9092688750242814,-0.607330322265625,-1.175582885742188,0.817596435546875,0.4513653247198617,-0.8226235627984669,3.160087242095957
2.9686538750538602,-0.2993011474609375,-0.8575592041015625,0.19256591796875,-0.1500531484594246,1.201240647601179,0.02504969321328531
3.0280188750475645,0.1789703369140625,-0.886566162109375,0.492034912109375,-0.04095728703654662,0.626918506932904,0.2371555603359922
3.0874058750923723,0.0538787841796875,-0.921539306640625,0.325103759765625,-0.4048233888774189,0.5410102564891279,0.9797998682255264
3.146769875078462,-0.031768798828125,-0.927337646484375,0.3078460693359375,-0.4183091040053621,0.3792288129051034,0.942140107250716
3.2061398749938235,0.0145111083984375,-0.929840087890625,0.3793182373046875,-0.3602953354512941,0.476585726559021,0.7961307025904676
3.265507875010371,0.021697998046875,-1.071075439453125,0.2909393310546875,-0.4174542292954467,0.3462189311935712,1.055490102198887
3.32487387501169,0.148956298828125,-1.112533569335938,0.259063720703125,-0.7901332638156092,0.4463135744480904,1.925052145526109
3.3842438750434667,0.258880615234375,-1.743545532226562,0.5760498046875,-1.081825036954244,0.5197646225769118,2.448528415714264
3.4436158750904724,0.9850006103515625,-1.81451416015625,0.2595367431640625,-2.079289120058048,2.030717056516638,2.851357629567432
3.502983874990605,-0.950469970703125,-0.794281005859375,0.286712646484375,-0.779943476852748,0.07317567727210723,3.604768565111938
3.562362875090912,0.2802581787109375,-0.171630859375,0.058074951171875,-0.04972388071286946,0.1054699675987351,-1.685309057874996
3.621731874998659,-0.207489013671875,-0.1724853515625,0.0710601806640625,0.6098846622846482,-0.7965530799393542,-2.309260004405224
3.681087875040248,-0.2012786865234375,-0.6052398681640625,0.1544342041015625,1.226164106978795,-1.145643431420249,-4.839831358557124
3.7404758750926703,-0.2815399169921875,-1.007095336914062,0.295257568359375,2.027230179701397,-0.9293161876536573,-5.705222891617282
3.799831875017844,-0.543548583984375,-1.620437622070312,0.0675506591796875,2.430217052691097,0.1389898446590174,-5.626219152615645
3.859220875077881,-0.67437744140625,-1.798507690429688,-0.5023651123046875,1.954873690780598,-0.1097744348686302,-2.890728737858727
3.918595875031315,0.3057403564453125,-0.9833831787109375,1.0023193359375,-0.1909587701708237,-0.9313758764407246,2.77406523788228
3.977964875055477,0.2022857666015625,-0.9647674560546875,0.198822021484375,-0.01523594459634332,-0.1265675297543428,3.502871228115545
4.037324875011109,-0.470672607421875,-0.936065673828125,0.709014892578125,0.430674693578818,-1.91944672406371,2.745818153464246
4.096706875017844,0.3184967041015625,-0.9792633056640625,0.231231689453125,-0.1530401499380575,1.473574435408246,-0.05789871999497669
4.156063875067048,0.2074737548828125,-0.8421478271484375,0.398406982421875,-0.1036278590727273,0.2800729339348371,1.010532747205041
4.215449874987826,-0.0024871826171875,-0.9316558837890625,0.25225830078125,-0.3320706215864163,-0.03644562583384339,1.428553164548238
4.274809875059873,-0.209625244140625,-0.939208984375,0.244415283203125,-0.4019439791068252,0.01638749545169358,1.12841970338627
4.334191875066608,0.090484619140625,-1.02178955078125,0.273712158203125,-0.3148660683122864,0.1952344753009459,1.07745585486986
4.39356187498197,0.0098114013671875,-0.998748779296875,0.4451446533203125,-0.4416857994218596,0.1953636386138147,1.291641118171701
4.452952875057235,-0.0623931884765625,-1.211502075195312,0.2940826416015625,-0.8388786991439835,0.5054389464411575,1.987265186487014
4.51232587499544,0.33770751953125,-1.65167236328125,0.40826416015625,-1.530401499380575,1.631443162718726,2.45630644399395
4.571707875002176,0.308441162109375,-1.7064208984375,0.193206787109375,-1.777380928345651,2.371104463871263,2.636695127798249
4.631078875041567,-0.6021575927734375,-0.6673583984375,0.249420166015625,-0.8173720754449396,0.6713064780856907,2.980996050374745
4.69042687502224,0.2452850341796875,-0.140411376953125,0.0186004638671875,0.3806930188724289,0.1935273890422051,-1.430263446600287
4.749823875026777,-0.0858154296875,-0.145355224609375,0.0410003662109375,1.203742953761417,-0.579696399748055,-1.970287001905541
4.809201875003055,-0.1663665771484375,-0.6668701171875,0.202606201171875,2.085994959682868,-1.721659875174032,-4.80642732900426
4.86858387500979,-0.094390869140625,-1.314620971679688,0.0899810791015625,2.353095103315711,-0.5020372907807993,-6.180912464469491
4.92795687506441,-0.723419189453125,-2.060043334960938,-0.1915130615234375,2.452996134758981,-0.1498134639613175,-4.868364999108451
4.987333875033073,-1.293899536132812,-1.5997314453125,-0.3053436279296875,1.474897493837797,-1.312794873026309,-1.513328506264295
5.046714875032194,2.118637084960938,-1.61798095703125,-0.1299285888671875,0.6993492980481161,-1.003037280317013,-0.1335697792084882
5.106091875000857,-0.41888427734375,-1.0382080078125,0.5847320556640625,0.2789304378271931,0.3252031280834289,2.779607808742953
5.165466875070706,-0.414398193359375,-0.859832763671875,0.254638671875,-0.1991559800060876,-0.9839567963710311,1.739652457814717
5.224840875016525,0.4453887939453125,-0.9242401123046875,0.49530029296875,-0.01858992967318911,0.1974574158628351,0.582992061597028
5.284217874985188,0.181488037109375,-0.9435272216796875,0.3122100830078125,-0.3651545391762526,0.3610186500033595,0.9434317403794044
5.343577875057235,-0.005096435546875,-0.9304962158203125,0.3172454833984375,-0.3164197564922386,-0.1191508924345811,1.331410102729854
5.40295087499544,0.0080718994140625,-0.9391021728515625,0.3940277099609375,-0.3778343817583379,0.390308628304269,1.008122586418519
5.462307875044644,-0.0343170166015625,-0.9897613525390625,0.3996429443359375,-0.4332734061705174,0.1605044578413315,1.196098616168454
5.521694875089452,0.0094146728515625,-1.133331298828125,0.2974700927734375,-0.5585341227779583,0.4886804726496159,1.260637129393216
5.5810698750428855,-0.0050048828125,-1.323104858398438,0.33697509765625,-0.9070620146366282,0.7318680928546376,1.978339868409722
5.640422875061631,0.7409210205078125,-1.96600341796875,0.4409637451171875,-1.791939364760678,1.962171551115742,2.522884938613712
5.69980787509121,-0.325592041015625,-1.469390869140625,0.494171142578125,-1.386154042097523,0.3311989689616333,4.472479178849338
5.759184875059873,-0.4969635009765625,-0.0938568115234375,0.193695068359375,-0.5306556198547908,0.9995413487540658,3.193886484754589
5.818552875076421,0.0765838623046875,0.0211944580078125,-0.136505126953125,0.3458295770422016,0.2072000580786719,-1.822681831120117
5.877932875067927,-0.1021728515625,-0.244873046875,0.02459716796875,1.704518438817737,-1.20687776068055,-3.902006104904554
5.937305875006132,-0.22174072265625,-0.83154296875,0.245635986328125,1.947791280177642,-1.483381526122463,-5.185383434213739
5.9966548749944195,-0.307861328125,-1.661300659179688,0.317626953125,2.591327645996531,-1.00527140615548,-5.935421742553769
6.056051874998957,-0.3833770751953125,-2.122543334960938,0.2734375,2.470329585029871,-0.4949237211930887,-4.355049221111166
6.115427875076421,-1.055450439453125,-1.544662475585938,-0.1703338623046875,1.332822110739814,-0.6826840348947272,-1.310364205899394
6.17481087509077,1.07794189453125,-2.03131103515625,-0.902801513671875,0.001763545273850472,-1.010580151472444,-1.843516272960025
6.234189875074662,-0.4329833984375,-0.9938812255859375,0.9740447998046875,0.8326948390928195,-2.006796809921655,2.857823252061926
6.29356787505094,-0.05096435546875,-1.0157470703125,0.0785980224609375,-0.06099917213604693,1.118277853323031,0.04519277843420864
6.352943875011988,0.1126861572265625,-0.8871002197265625,0.4833831787109375,0.01835823465835222,0.1547594867378126,0.8158466167725422
6.41232287499588,0.0548553466796875,-0.9142608642578125,0.376708984375,-0.3094694386793498,0.2248895729873052,1.190116623727918
6.471699875080958,-0.09930419921875,-0.929443359375,0.2669677734375,-0.3886036725744003,0.1474730779953558,1.179208848535171
6.531077875057235,-0.0425872802734375,-0.9661865234375,0.2631072998046875,-0.3347795890472449,0.2436310365265199,0.8946436944735887
6.5904298750683665,-0.046875,-0.9894866943359375,0.35906982421875,-0.3368525936397625,0.27932858041016,1.088242722549117
6.649827875080518,-0.0299530029296875,-1.027008056640625,0.3303070068359375,-0.6044859021228395,0.4780086535294504,1.482440631309338
6.709207875072025,-0.0208587646484375,-1.328720092773438,0.31597900390625,-1.174537663983173,0.9369589273499668,2.133705490611637
6.768584875040688,0.5716705322265625,-1.869659423828125,0.3093109130859375,-1.603528707120842,1.726593913725622,2.620437061975533
6.8279618750093505,-0.282470703125,-1.393112182617188,0.4337310791015625,-2.11560345205015,0.9189847205208039,3.642778798086203
6.887321875081398,-0.8992462158203125,-0.1234283447265625,0.0884246826171875,-0.2460526489057289,0.8589871632707359,1.4336371390692
6.946695875027217,0.115997314453125,0.0963134765625,-0.16497802734375,0.1859685389202332,-0.003727360261674902,-1.334378994713074
7.006083875079639,-0.095062255859375,-0.1125335693359375,-0.0440521240234375,1.261039799350036,-0.5996067246897053,-3.741566628193821
7.065538875060156,-0.200714111328125,-0.848846435546875,0.0439453125,1.765542644668031,-0.5489733744645738,-4.946356736895857
7.124924875097349,-0.52398681640625,-1.582733154296875,0.0323944091796875,2.596450502669407,-1.009796915795852,-5.600676774600696
7.184295875020325,-1.117263793945312,-1.826828002929688,-0.10137939453125,1.800566941428099,0.003632551726868081,-4.068805742930615
7.243651875061914,-0.655914306640625,-1.440673828125,-0.1966400146484375,-0.2750076015415064,-0.8695082474732029,1.193679400634226
7.303038874990307,0.4931488037109375,-2.006729125976562,-0.5784759521484375,0.4753987556611727,-0.8886659630907968,-0.4962763407107399
7.362425875035115,-0.2625579833984375,-1.054306030273438,0.4392547607421875,0.7384839176346124,-1.682879722328625,2.567478505802653
7.421786874998361,-0.145721435546875,-1.001235961914062,0.2066192626953125,0.1004698826521113,0.5735162681224171,0.132286668195288
7.481177875073627,0.182647705078125,-0.9100494384765625,0.33197021484375,0.1305119376448592,0.6015036943341688,-0.05880419476560363
7.54053825000301,0.05474853515625,-0.9334716796875,0.39569091796875,0.09598511937641789,-0.1540862396142406,0.3939960411495927
7.599923250032589,0.0414886474609375,-0.9224700927734375,0.313629150390625,-0.0738803496965422,0.1699368417901742,0.211270699804858
7.659300250001252,0.0887298583984375,-0.9180755615234375,0.3961334228515625,-0.03943289362858526,0.2446358472058068,0.1390473689385631
7.718680249992758,0.07373046875,-0.9414215087890625,0.3032379150390625,-0.07868629019969919,0.04426786258762412,0.1753483851252152
7.778037250041962,0.009521484375,-0.9195709228515625,0.335296630859375,-0.06920596935123512,0.0150806823047917,0.1213139118719435
7.837394250091165,-0.007293701171875,-0.9464263916015625,0.3526153564453125,-0.1301721182897651,-0.05784279361208503,0.02296124228644518
7.89678625005763,0.0584259033203125,-0.94036865234375,0.2861328125,-0.2678415676803212,0.1060417482847751,0.006166283187969468
7.95616025000345,0.0173187255859375,-0.9289398193359375,0.2995452880859375,-0.1874204943465444,0.009070726672809885,0.1223908942167715
8.015544250025414,0.0696258544921875,-0.944427490234375,0.2960968017578125,-0.1616853034686727,0.04478717900018957,0.08470237110218819
8.07492425001692,0.02984619140625,-0.93817138671875,0.270843505859375,-0.1309929045377275,0.01124972507671272,0.1479748175447268
8.134310250054114,0.00592041015625,-0.93792724609375,0.2828369140625,-0.1111065480458878,-0.06991197335621512,0.1073094129636528
8.193686250015162,0.023590087890625,-0.93878173828125,0.257965087890625,-0.1137052606375871,0.0560773841254715,0.05582092171249686
8.253060250077397,-0.0013427734375,-0.9349365234375,0.2688140869140625,-0.07982878630734318,0.01239142223602969,0.05312100899937453
8.312434250023216,0.0178985595703125,-0.9659423828125,0.2573089599609375,-0.08603448427944582,0.04589265716868146,-0.005875998629150832
8.371805250062607,-0.0001678466796875,-0.949859619140625,0.2626800537109375,-0.04028190938410253,0.03712606349235863,-0.02068051112890132
8.431173250079155,0.0197906494140625,-0.9511260986328125,0.2592010498046875,-0.04754221914787655,0.07962319027118907,-0.02328455004278079
8.49054625001736,-0.0214996337890625,-0.9521636962890625,0.2563018798828125,-0.02457138948150708,-0.01452887532692728,0.03105991516137614
8.549914250033908,0.011505126953125,-0.954864501953125,0.257720947265625,-0.02984285054320993,-0.006256564348923154,0.003252784955422782
8.609288250096142,0.028106689453125,-0.95611572265625,0.262786865234375,-0.03961984753710883,-0.04294347257752772,0.0569479714858184
8.668659250019118,-0.0321044921875,-0.951568603515625,0.2513885498046875,-0.03128894701512296,-0.08325387778529408,0.06698968669207117
8.728033250081353,-0.0070037841796875,-0.95635986328125,0.251556396484375,-0.02771871325776273,-0.009608418896896884,-0.01482954621399723
8.787387249991298,-0.0263214111328125,-0.949554443359375,0.249847412109375,-0.01607484033971828,-0.02335139538614179,-0.002947586694499701
8.846782250097021,-0.0067596435546875,-0.95135498046875,0.2501068115234375,-0.0138404481851418,-0.003415770414135631,-0.03087988547168678
8.90615625004284,-0.0001983642578125,-0.9557037353515625,0.241058349609375,-0.015998141300324,-0.006354036044820054,-0.003135073235241279
8.965523250051774,-0.0120086669921875,-0.9555206298828125,0.248291015625,-0.006473611977764612,-0.01912149662676893,-0.001923867571473242
9.024890250060707,-0.00042724609375,-0.9598846435546875,0.2466888427734375,0.001010935949794079,-0.01281646274600633,-0.007319431939973778
9.084247249993496,-0.0009002685546875,-0.9548187255859375,0.243682861328125,2.929477199087162e-05,0.005218464156010267,-0.01071656022647885
9.143607250065543,-0.0107574462890625,-0.9535675048828125,0.2435455322265625,0.01492382211658604,0.003086337387292829,-0.00642247928483509
9.202976250089705,-0.01556396484375,-0.9550933837890625,0.243988037109375,0.01387506927931283,0.006248574865652916,-0.009655556848191285
9.262353250058368,-0.005126953125,-0.950439453125,0.2535247802734375,0.01495311688857691,0.007158577010132993,-0.026719495216765
9.321725249988958,-0.0095672607421875,-0.951080322265625,0.2415008544921875,-0.0001001348569869794,-0.02117213066612994,0.008760734721924662
9.38109625002835,-0.010406494140625,-0.952117919921875,0.253265380859375,0.007395598347150045,-0.01162416552597786,0.009724799036533347
9.440462250029668,-0.0114898681640625,-0.9524383544921875,0.24420166015625,0.01168488559883167,-0.005290902137660422,0.006459230907878184
9.499836250091903,-0.023223876953125,-0.9569854736328125,0.2459564208984375,0.01807593958280382,-0.00535668221658538,0.001133441359937724
9.559207250014879,-0.030364990234375,-0.9527740478515625,0.25140380859375,0.01820323868290961,0.01877874779447573,-0.03324157672636905
9.618579250061885,0.0051422119140625,-0.9566497802734375,0.2467803955078125,0.01211312190211641,0.08005914974163504,-0.0744246998233544
9.67795024998486,0.0042572021484375,-0.9494781494140625,0.25518798828125,0.01400609680494473,0.03031875743000709,-0.05149115441224604
9.73729625006672,0.0041961669921875,-0.9498748779296875,0.253814697265625,0.008652077749449429,0.02513491436816785,-0.03864566321035784
9.796700250008143,0.00701904296875,-0.950531005859375,0.2544097900390625,0.005362541170983554,0.007327155107135008,-0.01073733288298147
9.856076250085607,-0.0264129638671875,-0.953826904296875,0.2507781982421875,0.01576484838883306,-0.03999721746357306,0.04841413808876849
9.915455250069499,0.0005645751953125,-0.95440673828125,0.25433349609375,0.01155918439537993,-0.03174674440650758,0.01847594637853372
9.974831250030547,-0.0095062255859375,-0.9506683349609375,0.2557220458984375,0.004216849270031466,-0.009592439930356408,-0.002024002428460221
10.034209250006825,-0.0048980712890625,-0.9517822265625,0.253936767578125,0.004248807203112417,-0.004420581093422527,-0.01806954799618763
10.093585250084288,-0.0079345703125,-0.95135498046875,0.2568359375,0.004226436649955751,-0.007467770012691192,-0.002047438246052918
10.152958250022493,-0.003936767578125,-0.953704833984375,0.25274658203125,0.006342584452132713,-0.01067980860343576,-0.004142813391727263
10.212314250064082,-0.0063934326171875,-0.9508819580078125,0.256439208984375,0.007404120462638298,-0.01062707801385219,0.00225250164998902
10.271687250002287,-0.013336181640625,-0.9508056640625,0.2550811767578125,0.005305016891437843,-0.004274639865686185,-0.001016262271974237
10.331064250087366,-0.013946533203125,-0.9504241943359375,0.260101318359375,0.01061536010505584,-0.008642490369525144,-0.01269049522644559
10.390435250010341,-0.017608642578125,-0.948486328125,0.25311279296875,0.008496016509570785,-0.006520749929059015,-0.01378079337672403
10.44982025003992,-0.00946044921875,-0.9556427001953125,0.2638702392578125,0.01381221867758696,-0.007552458535355712,-0.008437426965589042
10.509208250092342,-0.0111541748046875,-0.9521942138671875,0.255584716796875,0.004188619762476625,-0.01482954621399723,0.006560963661519211
10.56857725000009,-0.0037994384765625,-0.954620361328125,0.2597198486328125,0.009574596751052877,-0.002181395248883904,-0.003169161697194293
10.627955250092782,-0.00830078125,-0.949371337890625,0.2577362060546875,0.004263188272998844,-8.735168375459901e-05,-0.008524246017125625
10.687349250074476,-0.0155029296875,-0.94940185546875,0.2475433349609375,0.006470416184456517,0.01344630034381007,-0.03958362854628375
10.746726250043139,0.0105133056640625,-0.9514312744140625,0.264617919921875,0.02666782989161746,0.004784368898327352,-0.05120353301451748
10.806112250080332,-0.0059356689453125,-0.9419708251953125,0.2589874267578125,0.01919020618289297,0.002943059320646566,-0.02134150771145898
10.865493250079453,0.0009002685546875,-0.9543609619140625,0.2526092529296875,0.03727147208787696,-0.002506833534091587,-0.03086603703401837
10.924875250086188,-0.00885009765625,-0.9448699951171875,0.2660980224609375,0.03401069764918394,-0.01737925664163909,-0.03176938127577325
10.984259249991737,0.0020904541015625,-0.9434356689453125,0.2545318603515625,0.03409432090741242,-0.0005030711299159681,-0.04581222970376107
11.043639249983244,0.00604248046875,-0.9487457275390625,0.260467529296875,0.05418680606762424,-0.03139946820036124,-0.04865968154127379
11.10301825008355,-0.0170440673828125,-0.962799072265625,0.271636962890625,0.03289589841687677,-0.03140079978090628,-0.05613091366338209
11.162398250075057,0.0362091064453125,-0.9477996826171875,0.2733154296875,0.0342983190469125,0.03489859555661635,-0.1282770128580647
11.22177525004372,0.0279083251953125,-0.94793701171875,0.2991180419921875,0.04649612947169342,-0.07765378264507547,0.005142031432724993
11.281152250012383,-0.0139923095703125,-0.94915771484375,0.2541046142578125,-0.02115615169958947,0.04005074700148364,0.07735897071240369
11.340531249996275,0.0059661865234375,-0.933135986328125,0.2786407470703125,0.009687514781272237,0.0233519280183598,0.0008127967646921835
11.39990325004328,0.0012664794921875,-0.933074951171875,0.2738494873046875,0.01792360676845129,-0.03707759396051918,0.01853773171582356
11.459280250011943,0.007476806640625,-0.9390411376953125,0.30474853515625,0.02416073004141686,-0.0653976489924218,0.06255499084487122
11.518655250081792,-0.018798828125,-0.9378814697265625,0.2726898193359375,-0.00972692956540541,-0.02266216929602928,0.07805618628578644
11.578029250027612,-0.0251312255859375,-0.9457855224609375,0.2767486572265625,-0.02346404710025213,-0.0003768372942462122,0.07034260650448093
11.637381250038743,-0.0036468505859375,-0.938232421875,0.2842864990234375,-0.005348160101097127,-0.007578823830147496,-0.01803918795976073
11.696769250091165,-0.0042266845703125,-0.960968017578125,0.2602386474609375,-0.02144590362619009,-0.02938318893906225,0.0344229549859282
11.756156250019558,-0.03802490234375,-0.94708251953125,0.2728118896484375,-0.0150639043899242,-0.0315829599994677,0.02805480418733073
11.815510250045918,0.03985595703125,-0.9505767822265625,0.2648773193359375,-0.01143348319192818,0.04674034134365369,-0.1262972189036998
11.87488725001458,0.02197265625,-0.945343017578125,0.273590087890625,0.02131434346834018,-0.003847468826837475,-0.06816520599723215
11.934273250051774,-0.0033721923828125,-0.9384307861328125,0.2938385009765625,0.03512656214592714,-0.00681502922951277,-0.03828081014101699
11.993642250075936,0.022796630859375,-0.9483795166015625,0.282440185546875,0.01050830102923466,-0.03198589627239669,-0.009235310028176782
12.053014250006527,0.0062103271484375,-0.9415130615234375,0.282073974609375,-0.02773522485652122,-0.005880792319112974,0.04695153001809697
12.112379250000231,-0.00946044921875,-0.9486846923828125,0.2586517333984375,-0.03623923084936224,-0.002658900032335111,0.04797791230221351
12.171755250077695,0.0208282470703125,-0.94671630859375,0.28570556640625,-0.00309778897998017,0.01780829189325086,-0.03004312025718388
12.231130250031129,-0.024658203125,-0.9478302001953125,0.2471923828125,7.669903939428206e-05,0.01928980840766194,0.01897342487016053
12.29049225000199,0.0116424560546875,-0.942657470703125,0.2928619384765625,0.006417685594872948,0.005199289396161696,-0.01071336443317076
12.349867250071838,0.001953125,-0.948883056640625,0.2753143310546875,-0.01169926666871809,0.005542570860672911,0.02231728993486402
12.409232250065543,-0.006378173828125,-0.950592041015625,0.2823486328125,-0.008629707196292764,-0.02208772544889918,0.02262355346022313
12.468616250087507,0.009124755859375,-0.949920654296875,0.27239990234375,-0.004400074753028917,-0.02846519731131194,0.02376178851012299
12.528020875062793,-0.02008056640625,-0.943084716796875,0.26995849609375,-0.005545234021762989,-0.04310166434627842,0.05057023330729664
12.5874008750543,-0.0089263916015625,-0.9479522705078125,0.27984619140625,-0.002100168835636487,0.007517304808966666,0.008443285919987217
12.646773874992505,-0.0140228271484375,-0.94720458984375,0.2766571044921875,-0.02354820299069864,-0.02526727347434479,0.01838806206256111
12.70614587503951,-0.02105712890625,-0.9410247802734375,0.280181884765625,-0.02994458329685095,-0.02740073182360727,0.01521091088209658
12.765522875008173,-0.0043487548828125,-0.945587158203125,0.2624359130859375,-0.04169018896853643,-0.03480192280904647,0.01528707728927284
12.824895875062793,-0.0236968994140625,-0.94378662109375,0.2738494873046875,-0.02593918901737178,-0.07914169074610274,0.05309011633072962
12.884233875083737,-0.0261077880859375,-0.94561767578125,0.2458648681640625,-0.02477112656326303,-0.05802868225617255,0.0379351318315247
12.943607875029556,-0.0244140625,-0.9480743408203125,0.25927734375,0.004100735446504011,-0.03392361228153835,0.00996927722460262
13.002979875076562,-0.0092315673828125,-0.95123291015625,0.2658843994140625,0.02036679075248998,0.02619937985587252,-0.03438833389175717
13.062370875035413,-0.0193328857421875,-0.9465484619140625,0.2701568603515625,0.01702292568778649,-0.004412325294043282,-0.01273417106832288
13.121739875059575,-0.027557373046875,-0.9485626220703125,0.2642364501953125,-0.004936968028788892,0.07921572662440694,-0.05523715680155149
13.181106875068508,-0.007965087890625,-0.9497222900390625,0.27178955078125,0.002382996543402902,0.0505755596294768,-0.047456465360776
13.240455875056796,-0.0164031982421875,-0.9505615234375,0.255615234375,-0.02212500970416029,0.05442329477242328,0.0196413456715524
13.299851875053719,0.0085906982421875,-0.9495391845703125,0.2306060791015625,0.0006961503089467129,-0.07378873695504347,0.06690020447944452
13.359205875080079,-0.0347900390625,-0.936492919921875,0.293212890625,-0.01476563034783533,-0.1786445796064063,0.2204735192677358
13.418580875033513,-0.0530242919921875,-0.9516754150390625,0.2796630859375,-0.05662839215500889,-0.02846679520796598,0.1271297230604586
13.477962875040248,0.0047454833984375,-0.9564361572265625,0.281494140625,-0.07633578422159525,0.07019506738009054,-0.01786448459225153
13.537346875062212,-0.01885986328125,-0.970794677734375,0.261138916015625,-0.157965932690268,0.1616717213471133,0.08767818730424273
13.596723875030875,0.1949615478515625,-0.9923095703125,0.45770263671875,-0.3023316343257194,0.2896989296949286,0.3420143324645541
13.656103875022382,0.70367431640625,-1.593826293945312,0.570770263671875,-1.316296663543654,0.9319796150598456,2.366060436766652
13.715485875029117,0.0682830810546875,-1.359298706054688,0.194305419921875,-1.191237814546841,1.317125439274887,2.713616807459661
13.774870875058696,0.1931610107421875,-0.336334228515625,0.28338623046875,-0.7705936508976978,0.1032933660398133,2.313635578076225
13.834251875057817,0.067596435546875,0.0401611328125,0.173736572265625,0.3290074537006071,-0.6378015147275128,-1.382743598005567
13.893627875018865,0.11505126953125,-0.17144775390625,-0.0307464599609375,0.7359911988542983,0.1611300343813912,-3.069094484499002
13.9530098750256,-0.0133514404296875,-0.9084320068359375,0.066436767578125,1.820923612168447,-1.215633169080294,-4.620271836175503
14.01238487509545,-0.2080841064453125,-1.825942993164062,0.3026580810546875,1.522638917435212,-1.719139459518381,-4.590340568684103
14.071761875064112,-1.180419921875,-1.591903686523438,0.04925537109375,-0.05633384653844613,-0.7270733376280589,1.640954109919726
14.131146875093691,2.3443603515625,-2.380630493164062,-1.769775390625,0.7423907749537587,-0.09496912342055266,0.6942296371685477
14.190525875077583,-0.3796539306640625,-1.11212158203125,0.6901092529296875,0.2102427196240874,-0.2203957549639055,3.177846265509042
14.249901875038631,-0.6894989013671875,-0.8714447021484375,0.2374267578125,-0.1057573226803546,0.8867082733734796,0.1564484635011409
14.30927587498445,0.5352325439453125,-0.936859130859375,0.6029510498046875,0.1263355684233969,1.049957917666465,-0.4133689401832651
14.368649875046685,-0.0389556884765625,-0.9542388916015625,0.2495574951171875,-0.2454124249796739,0.2629325628429782,1.188660939876081
14.428015875048004,0.023529052734375,-0.93603515625,0.259490966796875,-0.3671039730941906,0.639555738937548,0.9627417888113509
14.487392875016667,-0.04638671875,-0.962921142578125,0.315643310546875,-0.3713309423763644,0.4249552888217639,1.084488198044323
14.546767875086516,-0.025177001953125,-0.96478271484375,0.385833740234375,-0.5120848649414503,0.4221629644188158,1.445793404180975
14.606129875057377,0.1787261962890625,-1.256332397460938,0.1870269775390625,-0.9065229908319962,0.6424894771943793,2.206362916735615
14.665511875064112,0.565155029296875,-2.263641357421875,0.6001129150390625,-1.286909213546848,0.9072340548430473,2.948328651179397
14.72487087501213,0.0118560791015625,-1.544631958007812,0.452606201171875,-2.200283452599182,2.353018670592425,2.853074835838315
14.78426287509501,-0.8471527099609375,-0.1875457763671875,0.2886505126953125,-0.431077896167856,1.058258458152024,2.65287383142048
14.843627875088714,0.1177825927734375,0.0658721923828125,-0.1442718505859375,-0.347893526887013,0.953337634370063,-0.4476992171632586
14.902995874988846,-0.062835693359375,-0.1628570556640625,0.0231475830078125,1.293265646436649,-0.9238873337715309,-3.028084466872872
14.96238187502604,-0.1302032470703125,-0.6393585205078125,0.1868896484375,2.081985304345644,-1.260076001351537,-5.360460176907766
15.021752875065431,-0.2218475341796875,-1.46466064453125,0.1196746826171875,2.751380964349203,0.182299235570322,-6.516573559837552
15.081130875041708,-0.712066650390625,-2.131698608398438,-0.2808380126953125,2.478540110670585,0.8861607274533593,-6.06506335915439
15.140488874982111,-1.636566162109375,-1.458114624023438,-0.174652099609375,0.002294046962994256,-1.272309498134925,0.9093938784871016
15.199855874991044,1.155731201171875,-1.865509033203125,-0.130035400390625,-1.382056502444327,5.410845586835412,1.80818251688129
15.25922787503805,-0.9608154296875,-1.256454467773438,0.722015380859375,0.3690816365196835,-0.8102617016505371,3.816506916004214
15.318597875069827,0.2641754150390625,-1.015579223632812,0.203582763671875,-0.160250392273338,1.524365178453801,-0.08404403768072059
15.37797287502326,-0.0084991455078125,-0.8239288330078125,0.4700775146484375,-0.3934548868160886,0.08449251400828994,1.751223892751111
15.437349874991924,0.103057861328125,-0.9371185302734375,0.2051239013671875,-0.4568413165532826,0.8235929534352557,1.080050306403815
15.49670987506397,-0.1699981689453125,-0.96942138671875,0.3195343017578125,-0.4543640441072909,0.003694337064157919,1.481348202630187
15.556091875070706,0.0172271728515625,-0.95196533203125,0.3167877197265625,-0.4660057864964633,0.6630006112779515,0.9368553303835627
15.615569874993525,0.1123046875,-1.193267822265625,0.2597503662109375,-0.5883918870232727,0.7231020318105328,1.328386349628178
15.67494387505576,0.0598297119140625,-1.56988525390625,0.4407806396484375,-1.161299622836607,0.6256790717615811,2.626394020701822
15.734313875087537,1.83270263671875,-1.963546752929688,0.4666900634765625,-2.327184676438112,3.464961662630484,2.637161180989013
15.793702875031158,-0.5806884765625,-0.6134490966796875,0.3923797607421875,-0.7568378912352205,0.01105211852382884,3.67688004321245
15.853075875085779,-0.3902740478515625,0.0418701171875,-0.1438446044921875,-0.3892247217406068,1.381915354906553,0.7999858945844663
15.912461875006557,-0.0778656005859375,0.145172119140625,-0.043670654296875,0.6859216398319365,-1.506263406208423,-3.132796765141479
15.971849875058979,-0.207763671875,-0.339935302734375,0.1621551513671875,2.130770154458152,-0.7897692096945953,-5.020274370847661
16.03122687502764,-0.080169677734375,-1.070220947265625,0.001983642578125,2.453045136923039,-0.2125671266235086,-5.483762937481781
16.090598875074647,-0.5439453125,-1.972488403320312,0.1732330322265625,3.199973938374292,-1.08067987768551,-5.844769869576344
16.149986875010654,-1.511123657226562,-1.779861450195312,-0.4070587158203125,1.399925780726541,-1.615199477965897,-1.251013530478106
16.209369875025004,3.562271118164062,-0.0189208984375,2.339004516601562,-0.7574349719516162,-0.4733779490260206,2.710123272741695
16.26876687502954,-0.6352386474609375,-0.8323822021484375,0.415008544921875,0.04134717382013422,-0.8323145396891563,3.247406435285257
16.32814987504389,-0.6008148193359375,-0.7269287109375,0.225738525390625,-0.4547512677297884,-0.5655001532412786,1.391696612958196
16.38751387502998,0.4150390625,-0.8861846923828125,0.4998779296875,-0.3738668043663378,0.3208898723819366,0.9683860924256649
16.446890874998644,0.060699462890625,-0.92254638671875,0.360198974609375,-0.4622368809217831,0.3623726011015558,1.307909304006559
16.50627487502061,-0.104034423828125,-0.95465087890625,0.224761962890625,-0.4543560546240207,0.4477096034915099,1.228094898769102
16.565637874999084,0.092742919921875,-1.030364990234375,0.2308197021484375,-0.5425956362860521,0.6952315183706356,1.072899186244734
16.625015875091776,-0.0544586181640625,-1.019882202148438,0.3344268798828125,-0.604098678500342,0.3270979671990203,1.477710324581139
16.684395875083283,0.0678253173828125,-1.17999267578125,0.336822509765625,-1.024396098575557,0.7038630897796914,2.137413143481246
16.743772875051945,0.9443206787109375,-2.3248291015625,0.009613037109375,-1.95432561222826,2.324687163967835,2.613674763335604
16.80316487501841,-0.20989990234375,-1.393875122070312,1.131622314453125,-1.160351537488538,-1.031988238211155,4.786075984586092
16.86253787507303,-0.8326263427734375,-0.1977996826171875,0.2899322509765625,-0.4675552136186714,0.3706089594048439,3.341553440877303
16.92188487504609,-0.0492401123046875,0.09228515625,-0.0936737060546875,-0.08591091360486615,0.4830103363727282,-2.505970669898401
16.981276875012554,-0.04766845703125,-0.170074462890625,0.071258544921875,1.359023887440668,-0.9325191714966956,-4.600161241519879
17.040644875029102,-0.1243896484375,-0.8253936767578125,0.203155517578125,2.024198969748669,-1.101510058467674,-5.47202425602893
17.100009875022806,-0.3328704833984375,-1.756240844726562,0.375701904296875,2.907949802731615,-0.9810704623816032,-6.461029606878424
17.159377875039354,-0.68475341796875,-2.2786865234375,-0.0046844482421875,2.603484976372743,-0.2170529551636381,-4.122488678919996
17.21876487508416,-0.9424591064453125,-1.830245971679688,0.2351531982421875,-0.3025228492919871,-1.089563916765905,2.992136053214546
17.27812187501695,0.4956817626953125,-1.623062133789062,0.2876129150390625,-1.949309814631205,4.42789812851752,-0.9589739485011067
17.337507875054143,-0.7434234619140625,-1.126373291015625,1.075485229492188,0.5389939772278289,-2.592508757939981,3.572971486960828
17.396871875040233,0.4002685546875,-1.047256469726562,0.049713134765625,-0.3675268830752952,0.5025323724274451,0.601847242114789
17.456246874993667,-0.0226593017578125,-0.8043975830078125,0.45684814453125,-0.1959633824913006,0.156251123264366,1.398777425664498
17.515641874982975,0.0285797119140625,-0.937530517578125,0.3183441162109375,-0.4593968859353226,0.5104033450291743,1.227400878989027
17.57503487507347,-0.1040802001953125,-0.9441375732421875,0.297760009765625,-0.4852455274756317,0.2156231039743745,1.285001857574133
17.634414875064977,-0.1363983154296875,-1.056304931640625,0.272705078125,-0.4213584234535029,0.4431840938511383,1.207908137706301
17.693794875056483,0.1346588134765625,-1.071212768554688,0.401824951171875,-0.6263179641070911,0.5869090389283166,1.414077286127004
17.753168875002302,-0.0387115478515625,-1.388153076171875,0.46356201171875,-1.289488218746481,0.7798529293756853,2.717366538274493
17.812542875064537,1.24420166015625,-2.163253784179688,0.1792755126953125,-1.861385551242239,2.158830817599881,2.632602381835015
17.87190987507347,-0.34783935546875,-0.9491729736328125,0.7256317138671875,-1.626470774647439,-0.06039410193638093,4.563025058015378
17.93128187500406,-0.64422607421875,0.0279541015625,0.1041259765625,-0.3363535172514817,1.034256452511576,0.5480300828064678
17.990653875051066,-0.11053466796875,0.057037353515625,-0.1148223876953125,0.3883096595900555,-0.5741644815317424,-2.225479087040203
18.0500288750045,-0.149932861328125,-0.2616729736328125,-0.0269927978515625,1.548492352665483,-0.6080550706157637,-3.758393545225377
18.10938987508416,-0.1310272216796875,-0.7261505126953125,0.0812835693359375,2.312147403659088,-0.540372962040272,-5.597461273900533
18.168781875050627,-0.4454498291015625,-1.784149169921875,0.1683197021484375,2.583793030640479,-0.331859166595864,-6.080355762765843
18.228153874981217,-0.778961181640625,-2.047225952148438,-0.06939697265625,2.252084066330095,-0.8313973470097329,-5.243597472481781
18.287532875081524,-0.1243896484375,-1.350204467773438,1.080718994140625,-0.6827695223657188,-0.9671008508835925,2.286047359711876
18.346907875034958,0.3114776611328125,-1.224624633789062,0.1163177490234375,0.2526849852844623,-1.0612822112537,-1.601946256801117
18.406287875026464,-0.83258056640625,-0.812530517578125,0.8114013671875,1.068790993947178,-2.872676500409625,4.034646973524823
18.465664874995127,0.613739013671875,-0.9803314208984375,0.205902099609375,-0.0659318791070917,2.070828257274866,-0.6176493747588832
18.525015874998644,0.0811767578125,-0.832855224609375,0.3440704345703125,-0.3643428076759965,-0.0878819191276338,1.610308582623966
18.584403875051066,-0.0262908935546875,-0.9535064697265625,0.3831329345703125,-0.387886749608951,0.3309313212720804,1.38290392030319
18.643791874987073,-0.093597412109375,-0.93695068359375,0.3754119873046875,-0.4589835633341424,0.1335197117799947,1.260338322718909
18.70317887503188,-0.03155517578125,-1.052291870117188,0.1913299560546875,-0.4830984870048098,0.6571717506000951,0.9934043603380872
18.7625518750865,0.080322265625,-1.065841674804688,0.32562255859375,-0.7730288453984663,0.6659913411821106,1.659359216213264
18.821939875022508,0.0872039794921875,-1.436477661132812,0.4183807373046875,-1.153896035006186,0.817653038939943,2.348211398508723
18.881324875052087,1.323333740234375,-2.100601196289062,0.14239501953125,-2.315560510912134,2.74635930779775,2.718641659804423
18.94069987500552,-0.5544586181640625,-0.705169677734375,0.444305419921875,-2.07429302985306,0.004495149603944746,4.296690839512041
19.000052875024267,-0.14788818359375,-0.1093902587890625,0.2031707763671875,-0.2577748187598217,0.6164898344202627,1.400066395632097
19.059459874988534,-0.180145263671875,0.0695037841796875,-0.0744476318359375,0.5756145727452905,0.2967816066139943,-2.677348814470526
19.118830875027925,-0.1098785400390625,-0.4241943359375,0.01611328125,1.744212854865368,-0.7382775226501312,-4.489138849364437
19.178192874998786,-0.104248046875,-0.8839111328125,0.0890655517578125,2.109168722224301,-0.8611334047932306,-5.048276444445408
19.23757087509148,-0.5738677978515625,-1.64312744140625,0.44525146484375,2.709258278019638,-1.714398500145822,-5.462810783921691
19.296944875037298,-0.4401397705078125,-1.732040405273438,0.1403961181640625,2.024487123778616,0.2961222079280906,-4.198770134655354
19.35631987499073,-0.737060546875,-1.270050048828125,-0.45947265625,1.029819892451613,0.3924378255957874,-1.059089630728238
19.415690875030123,1.285476684570312,-2.344406127929688,-0.8448028564453125,0.07449713780500454,-2.146478011199657,-2.077173504888089
19.475067874998786,-1.622299194335938,-1.908401489257812,0.6936187744140625,1.066297742534646,-3.080357791697274,4.948281669731767
19.534448874997906,0.7633209228515625,-1.033493041992188,0.396514892578125,-0.392863665054091,0.9509940526107934,-0.002148105735257914
19.593816875014454,0.0147705078125,-0.996124267578125,0.29510498046875,-0.211403325227144,-0.2662010604488324,0.832108411020784
19.653173875063658,0.052001953125,-0.8003997802734375,0.243438720703125,-0.2619575795679001,0.705431425345639,0.02726970429797537
19.712572875083424,-0.0107879638671875,-0.879638671875,0.3211669921875,-0.1990973904621058,0.2512002729767431,0.1058574575373416
19.771917875041254,0.108306884765625,-0.9476776123046875,0.2723388671875,-0.3466301232658794,0.1624152759234634,0.4723718067661887
19.831305875093676,0.03509521484375,-0.8040924072265625,0.177825927734375,-0.3748042370700457,0.292302169660481,0.4933095792563917
19.89067387499381,-0.015167236328125,-1.238494873046875,0.2276763916015625,-0.3531410194989051,-0.3827369950090647,0.092527271017059
19.950043875025585,0.0710601806640625,-0.991790771484375,0.2490386962890625,-0.3730918244891248,-0.04283694613392455,0.4405150738066608
20.009405874996446,-0.1266937255859375,-0.8825836181640625,0.2380828857421875,-0.2947581368177521,-0.1634624308640826,0.2809315370702787
20.068792875041254,0.0226287841796875,-1.002426147460938,0.2238311767578125,-0.1044102958009926,-0.007691475544257848,0.05652878993023992
20.128178875078447,-0.0285491943359375,-0.94903564453125,0.1828155517578125,-0.08512102002554864,0.2282038769639088,-0.1762991336343735
20.18753687501885,-0.05621337890625,-0.9218902587890625,0.171417236328125,-0.0506964671429664,0.08466482053081807,-0.05531864953090792
20.24689287506044,0.0218963623046875,-0.9627838134765625,0.21807861328125,0.06299174926364422,0.02659326138109524,-0.09619497647031613
20.30627987498883,-0.0018310546875,-0.9761199951171875,0.16424560546875,0.1691666556029233,-0.02925642247117448,-0.007059507417582045
20.365669875056483,-0.05108642578125,-0.938201904296875,0.210968017578125,0.2031864079998135,-0.04220923906499287,-0.01862561603179617
20.425044875009917,0.0189971923828125,-0.9853363037109375,0.257598876953125,0.2137250690654751,0.1622520241486416,-0.08269860869801257
20.48441887507215,-0.00042724609375,-0.9549713134765625,0.213348388671875,0.1371053918716774,-0.0557282437065621,-0.007848335732463515
20.54379687504843,-0.0111083984375,-0.960418701171875,0.24005126953125,0.09311796014683858,-0.1116583550237522,0.1419741829765602
20.603176875039935,-0.0461273193359375,-0.9391021728515625,0.2852325439453125,-0.036365464685032,0.009866212890416554,0.3867959188264545
20.662554875016212,-0.039093017578125,-0.9349517822265625,0.2278900146484375,-0.1173447365832894,-0.0278185817986407,0.1803892164365172
20.72193487500772,0.0154266357421875,-0.9612884521484375,0.326385498046875,-0.1152211319300602,-0.02886866621645894,0.182533593746249
20.781311875092797,0.0748443603515625,-1.009841918945312,0.494049072265625,-0.5015414101858265,0.5165027828737827,0.4524044901772106
20.84068887506146,0.5648651123046875,-1.471298217773438,0.2449798583984375,-1.39559068710411,1.233887274140024,1.872378547589868
20.900064875022508,0.1519317626953125,-1.591018676757812,0.074676513671875,-1.192233304162313,1.32279424397123,2.632545390187687
20.959439875092357,-0.20208740234375,-0.9073944091796875,0.256072998046875,-1.116313505702988,0.4572455844067566,2.698622677890297
21.018825875013135,-0.3524169921875,0.13421630859375,0.092376708984375,-0.4285111415092377,-0.1388777255771251,1.70996992956913
21.07820787501987,0.1164398193359375,0.223358154296875,0.0535430908203125,0.5274800665709803,-0.2648519030405982,-3.012263159468929
21.13758887501899,-0.0460205078125,-0.98388671875,0.196929931640625,1.355277352419144,-0.9652539486676226,-3.849408140743271
21.196967875002883,-0.348663330078125,-1.42291259765625,0.233154296875,1.84320095468696,-2.126645716877946,-4.182784776528262
21.256348875002004,-0.2734375,-1.179244995117188,0.3515777587890625,1.182553246232093,-0.6127068140918052,-4.416173561818447
21.315726875094697,-0.6315155029296875,-1.23114013671875,-0.098419189453125,1.525507674561445,0.2866802365993237,-3.020013490873278
21.37511387502309,0.1858673095703125,-0.9168243408203125,0.3439483642578125,-0.1578721894198973,-0.6514819069311408,1.016521131232193
21.43448487506248,-0.1422119140625,-1.255889892578125,-0.0288238525390625,0.1679730268023498,-0.1204079044690985,3.419748644171991
21.493871874990873,-0.3634490966796875,-0.7392578125,1.0364990234375,0.7064940266205806,-1.034051921739858,2.154197449935361
21.553228875040077,0.2884063720703125,-1.177093505859375,-0.1571044921875,-0.3937078871196462,0.7456928283893479,-0.1523072480060677
21.612609875039198,-0.060302734375,-0.85736083984375,0.5755767822265625,0.09328414139885953,-0.6822238406583615,0.98926421010745
21.671989875030704,0.173980712890625,-0.95367431640625,0.2208404541015625,-0.1687943456825302,0.1224625332500947,0.09556700308527545
21.73136787500698,-0.0623016357421875,-0.9182891845703125,0.31005859375,-0.1324390010096405,-0.2717779860875673,0.4644712730763596
21.79074487509206,0.05511474609375,-0.9460906982421875,0.2611083984375,-0.09777210046786106,0.05898369182307497,0.1506614144523987
21.850124875083566,-0.05242919921875,-0.89898681640625,0.3503265380859375,-0.05749711530259274,0.007077883229103591,0.06065136329768259
21.909500875044614,0.01971435546875,-0.9516143798828125,0.3487091064453125,-0.1092785542736574,0.07949163011333915,-0.05955254303191589
21.968876875005662,0.0528564453125,-0.9821929931640625,0.2987518310546875,-0.2114219673547745,0.09804454184737617,-0.03848693880938912
22.028252875083126,0.003387451171875,-0.9650726318359375,0.2409210205078125,-0.3949489201876231,0.005751629006244131,-0.08551996155684251
22.087603875086643,0.016845703125,-0.943817138671875,0.178009033203125,-0.2937892788131812,0.0006860302968044118,-0.1440413286146797
22.14700187498238,0.0192718505859375,-0.952362060546875,0.2374725341796875,-0.1545778591514692,-0.06953939711971303,-0.2295394522505836
22.206375875044614,0.095855712890625,-0.965087890625,0.212127685546875,-0.153832706678465,0.08362299191237907,-0.331423473441527
22.265751875005662,0.074493408203125,-0.94183349609375,0.1940460205078125,-0.1453398859622023,0.08747418916474266,-0.2525853830596933
22.325125875067897,0.104156494140625,-0.96429443359375,0.2177886962890625,-0.09429827314196169,0.07700503660353217,-0.2172713343730246
22.38450087502133,0.1549530029296875,-0.9565277099609375,0.2080230712890625,-0.0623019905413137,0.0942980068258527,-0.1726793650807378
22.44387887499761,0.088592529296875,-0.9539642333984375,0.197723388671875,-0.02340119649852626,-0.00491539642395925,-0.08416281466533813
22.503255875082687,0.11962890625,-0.9517669677734375,0.209381103515625,-0.01716460585777871,-0.04010347759106721,-0.09656249270074707
22.562633000081405,0.100738525390625,-0.947418212890625,0.1656951904296875,-0.01717366060548497,-0.03421389684035698,-0.03054166401324672
22.622012000065297,0.091278076171875,-0.9565887451171875,0.2121429443359375,0.06166229924747667,-0.02837464983424924,-0.06467806286588239
22.681374000036158,0.1431732177734375,-0.9578094482421875,0.2155609130859375,-0.01631559010226144,0.1376044682599582,-0.1859264609750099
22.740761000080965,0.1295928955078125,-0.962677001953125,0.2156524658203125,0.0003094593186672075,0.0587730357808497,-0.08272257714782329
22.800118000013754,0.1499176025390625,-0.9501953125,0.195648193359375,-0.00919323208295353,0.08262057807807324,-0.03182690555531896
22.85950500005856,0.12896728515625,-0.9609375,0.1993865966796875,0.008455003828783565,-0.01153415068113318,0.02038330235124847
22.918858000077307,0.106719970703125,-0.9515838623046875,0.212615966796875,0.02888091675747331,0.03311640815513533,0.03055924087644124
22.97825400007423,0.1282958984375,-0.9574432373046875,0.199310302734375,0.02584011942482083,0.05795091795234224,-0.04646097574530438
23.037646000040695,0.1486053466796875,-0.95660400390625,0.221038818359375,0.05008766851777428,0.01395842622143231,0.03397820708388497
23.097017000080086,0.1160125732421875,-0.9528045654296875,0.220123291015625,0.0276707763581413,0.003569967441251219,0.05326854812376492
23.15640400000848,0.1153564453125,-0.9524383544921875,0.2184906005859375,0.03303331752912485,0.007458448948875915,0.01378984812443029
23.21578299999237,0.1359710693359375,-0.9558868408203125,0.2290496826171875,0.02975496622723731,-0.01283750171861796,0.0001555286076606275
23.275161000085063,0.1144866943359375,-0.950958251953125,0.2107391357421875,0.01494139897978056,0.008509864947239197,0.006308495990179699
23.334540000068955,0.11956787109375,-0.9573211669921875,0.221771240234375,0.03617957604094447,-0.00546693708571466,-0.005252286301854273
23.39392200007569,0.1269683837890625,-0.9534912109375,0.2184906005859375,0.02556900962585077,0.001945439176302884,-0.01173442039510714
23.45330500009004,0.1012420654296875,-0.9459381103515625,0.2360382080078125,0.04456800084247605,-0.03188309825431963,0.01422926970429337
23.51268600008916,0.1256256103515625,-0.9539337158203125,0.2319793701171875,0.03636972574277612,0.03246952632635508,-0.04084543427076329
23.572068000095896,0.1335906982421875,-0.951446533203125,0.2325439453125,0.01613822357366217,0.03141198505748462,-0.04723861878360751
23.631449999986216,0.1263885498046875,-0.9474639892578125,0.2271881103515625,0.01390649458017577,0.01142975476640207,-0.02463530534766898
23.69082800007891,0.13165283203125,-0.9539794921875,0.231597900390625,0.02128345079969526,-0.006745520725061702,-0.03509034315510206
23.750218000030145,0.1309356689453125,-0.9497528076171875,0.235565185546875,0.01812387648242525,0.002974218305400493,-0.01814464913892786
23.809597000014037,0.122100830078125,-0.9468231201171875,0.2325897216796875,0.01171204984195047,-0.002327602792729254,-0.01915505245650393
23.868978000013158,0.1284637451171875,-0.9495391845703125,0.236541748046875,0.01595712861953678,-0.005536711906274736,-0.02018356526949253
23.928358000004664,0.127593994140625,-0.949371337890625,0.231964111328125,0.01167156979338127,-0.009642773674958905,-0.005217665207683244
23.98773799999617,0.1324920654296875,-0.9491729736328125,0.2379302978515625,0.0116859508632677,-0.005309544265290977,0.004327636771378762
24.04711100005079,0.1298980712890625,-0.947967529296875,0.2418212890625,0.004187021865822579,-0.0148015830225514,0.009758354866268344
24.106483999988995,0.1350250244140625,-0.9474639892578125,0.2342681884765625,-0.005305016891437843,0.005420864398856289,0.01059671797742529
24.165859000058845,0.1184539794921875,-0.946990966796875,0.2339935302734375,-0.001067927597121775,0.001205346709369863,0.0159747054827313
24.225233000004664,0.12908935546875,-0.9503173828125,0.236846923828125,-3.728425526110934e-06,-0.001080977086463163,-0.002119876227703074
24.284629000001587,0.13067626953125,-0.9498443603515625,0.237884521484375,-0.003175553283810484,0.003122023745899891,-0.008563128169040783
24.34400700009428,0.1263885498046875,-0.952972412109375,0.2349853515625,-0.01064199171595664,0.001084971828098282,-0.001082841299226218
24.4033889999846,0.1253814697265625,-0.9496917724609375,0.233184814453125,-0.01597097705720519,4.793689962142629e-05,-7.989483270237714e-06
24.46278699999675,0.12445068359375,-0.9476318359375,0.23846435546875,-0.01707246048406197,-0.008475510169177176,-0.003112170049866598
24.5221700000111,0.1242828369140625,-0.9496307373046875,0.232177734375,-0.02341983862615682,-4.261057744126781e-06,-0.008538094454794037
24.581551000010222,0.1219635009765625,-0.9494171142578125,0.2327117919921875,-0.02024535060678237,-0.005400091742353672,-0.01700428356015594
24.64091900002677,0.118927001953125,-0.9560546875,0.21905517578125,-0.03296301007634676,0.01194321222456935,0.01797314156472676
24.70029200008139,0.1036529541015625,-0.9484405517578125,0.225982666015625,-0.02553385589946172,0.002024268744569229,-0.02028636328756959
24.759691999992356,0.135528564453125,-0.94952392578125,0.229400634765625,-0.05968090739645771,-0.02405926360388485,-0.09889116075791235
24.819054000079632,0.1519775390625,-0.944091796875,0.2081298828125,-0.05217292365130632,-0.01014078479880372,-0.08411860619124281
24.878433000063524,0.12078857421875,-0.9414825439453125,0.2158966064453125,-0.03414279043925186,-0.02042697819312577,-0.0392288954890852
24.9378189999843,0.159576416015625,-0.9591827392578125,0.199615478515625,-0.02103204839279178,0.04934118446422507,-0.07516718913526849
24.99720400001388,0.132080078125,-0.9469757080078125,0.2328033447265625,0.06160264443905889,-0.01816089442157735,0.1313348544216937
25.05660600005649,0.11126708984375,-0.954132080078125,0.197998046875,0.0604164724895376,-0.04468810940763863,0.1348246607141335
25.115992000093684,0.1045074462890625,-0.949493408203125,0.264434814453125,0.03479846069962937,-0.06755427684316798,0.06258375298464408
25.175373999984004,0.1247711181640625,-0.9494171142578125,0.1874237060546875,0.006178533728983832,-0.04334188147660357,0.02712855676020117
25.234756999998353,0.0407867431640625,-0.94775390625,0.264739990234375,0.008147675038988422,-0.07607559338309451,0.05094041269881765
25.29413900000509,0.1072235107421875,-0.953094482421875,0.2454681396484375,-0.05853042180554348,0.007677360790480428,0.007349259344182665
25.353524000034668,0.097930908203125,-0.9528350830078125,0.250701904296875,-0.1307702642705969,0.03142423559849898,-0.09633878716918041
25.412880000076257,0.150543212890625,-0.9600372314453125,0.2191314697265625,-0.1787577639527347,0.008802280034929898,-0.1483407358785037
25.472268000012264,0.1215972900390625,-0.9600830078125,0.159515380859375,-0.2404813159052832,0.01188568794502364,-0.1814464913892787
25.53165500005707,0.1384124755859375,-0.9525299072265625,0.146148681640625,-0.1750565026697425,0.09849434975549054,-0.3390587562867842
25.591015000012703,0.226104736328125,-0.95184326171875,0.1970977783203125,-0.1628688122571039,0.2001730412263888,-0.3710859315560771
25.650408999994397,0.2071075439453125,-0.946746826171875,0.1657867431640625,-0.1876841472944623,0.1291633128688431,-0.359655111525239
25.709789999993518,0.2558746337890625,-0.937591552734375,0.1550750732421875,-0.1254950747833679,0.008185758242576554,-0.2005381606118387
25.769175000023097,0.215179443359375,-0.9435577392578125,0.129547119140625,-0.07252213754060179,-0.03320908616107009,-0.05616020843537296
25.828552999999374,0.183807373046875,-0.9520416259765625,0.15960693359375,0.0009139968861151946,-0.03289829526185784,0.004626976077903668
25.887926000053994,0.2186126708984375,-0.952667236328125,0.130706787109375,-0.01464419020212772,0.04933133076819177,-0.07409819627371067
25.947302000015043,0.2216949462890625,-0.9491119384765625,0.1571807861328125,0.05531918216312594,-0.015393071100658,-0.04030854099500332
26.006661000079475,0.2350311279296875,-0.9495086669921875,0.1751861572265625,0.05624862538356359,-0.04168433001413825,-0.009106945663634963
26.06603200000245,0.20648193359375,-0.9427337646484375,0.1337890625,0.002917226658072797,-0.05591253445399559,0.0464519209975981
26.125427999999374,0.2125091552734375,-0.9513702392578125,0.1669158935546875,0.05687872929747634,-0.1246332758546183,0.1037279939297143
26.184805000084452,0.204620361328125,-0.94061279296875,0.1426239013671875,0.032870332070412,-0.02522226605192245,0.0429296241398593
26.244189999997616,0.22381591796875,-0.9494171142578125,0.1610260009765625,0.1020336908442059,-0.03841103871832186,0.01645993343334374
26.303569999989122,0.204742431640625,-0.951385498046875,0.1785430908203125,0.1173106481213364,0.04560849788037001,0.03152863151323008
26.362954000011086,0.186859130859375,-0.945587158203125,0.18231201171875,0.1247094422617945,0.02934350783882007,-0.003463174681539041
26.42233800003305,0.212646484375,-0.9486083984375,0.163238525390625,0.1312975701664326,0.07053169094187656,-0.02949610696928161
26.48172500007786,0.1918792724609375,-0.9424285888671875,0.208953857421875,0.1897992298322032,0.0599189939979108,-0.00803369174433303
26.54111600003671,0.1983184814453125,-0.9368743896484375,0.221282958984375,0.1346526205077144,0.1043863273511818,-0.04479064110960668
26.600505999987945,0.2176666259765625,-0.93585205078125,0.211822509765625,0.109163505714566,0.1216747701996492,-0.02047757825383728
26.659889000002295,0.186279296875,-0.939483642578125,0.2454833984375,0.1047815404569496,0.0986237793844684,0.0149493884630508
26.719274000031874,0.2264556884765625,-0.9377593994140625,0.257415771484375,0.0208445618520502,0.1255834917315585,-0.08984546779934921
26.778660000069067,0.2297821044921875,-0.935882568359375,0.2346038818359375,-0.01787780039770193,0.05117690140361669,0.01434964458556495
26.838045999989845,0.2325439453125,-0.946563720703125,0.2304229736328125,-0.03713405297562886,0.03334251053168306,0.03372360888367339
26.89742200006731,0.1681976318359375,-0.9332122802734375,0.2966156005859375,0.06150410747872596,-0.04165343734549333,0.1177372865279671
26.9568089999957,0.1551055908203125,-0.9400787353515625,0.259613037109375,-0.02972886724855454,0.005503422392648746,-0.1098623191846028
27.016197000048123,0.151031494140625,-0.9411163330078125,0.2532196044921875,-0.1041759376250656,0.01227797157359231,-0.2112323502851609
27.075568000087515,0.223297119140625,-0.9703369140625,0.2535247802734375,-0.1410750997925495,-0.1576431575661504,-0.3372829604719193
27.134972000028938,0.277618408203125,-0.953521728515625,0.200347900390625,-0.4112985987518376,0.1233206037533182,-0.3756836128619899
27.194346000091173,0.2592620849609375,-0.9301605224609375,0.17498779296875,-0.4032366774999497,0.2639458956377533,-0.3292657803263448
27.25373400002718,0.34613037109375,-0.8784942626953125,0.1777191162109375,-0.2440558107203875,0.1512225424940784,-0.2863777014994907
27.31311700004153,0.2451629638671875,-0.915374755859375,0.1252899169921875,-0.06550044701049887,-0.1311340520755017,-0.07426277962907757
27.37249800004065,0.3364410400390625,-0.939727783203125,0.1253662109375,-0.08355188551127396,0.1073336477295725,-0.1472515029926612
27.43188300007023,0.32196044921875,-0.9223175048828125,0.1914825439453125,0.002487392458134008,-0.1355035004759947,0.1784355214608351
27.49126400006935,0.2387237548828125,-0.9237213134765625,0.1304168701171875,0.01523274880303523,-0.1338456826974204,0.2509043957796352
27.550666541676037,0.2021636962890625,-0.9552154541015625,0.1635894775390625,0.02909716543798774,-0.1319955846881423,0.224242957474634
27.6100355417002,0.286529541015625,-0.9417266845703125,0.146087646484375,-0.01760775586316789,-0.1160227434181741,0.09080740158508584
27.669431541697122,0.224945068359375,-0.9246368408203125,0.131195068359375,-0.01666073577953571,-0.136890474771708,0.134739972191469
27.728808541665785,0.257904052734375,-0.944366455078125,0.1478118896484375,0.01724929438044323,-0.1754325410156617,0.1127971227058701
27.78819254168775,0.2546844482421875,-0.941741943359375,0.1372222900390625,0.01552835968403402,-0.08514632005590439,0.109668441057245
27.84757154167164,0.2166900634765625,-0.9554290771484375,0.1546783447265625,0.02953925017894089,-0.04230298233536366,0.1539701257907131
27.90693954168819,0.2017059326171875,-0.94866943359375,0.1533203125,0.05053294905203553,-0.1035815200697599,0.2004896910799993
27.966296541737393,0.1932373046875,-0.9532470703125,0.14044189453125,0.04439223221053082,-0.05173163785868019,0.174333188117677
28.025683541665785,0.216888427734375,-0.9490966796875,0.1501922607421875,0.06222422623748339,-0.1032531523073531,0.2420616356961362
28.085049541667104,0.172760009765625,-0.959686279296875,0.163330078125,0.04412964452704901,-0.09642400832406295,0.2878115474303894
28.144422541721724,0.151947021484375,-0.951446533203125,0.1253662109375,0.03656573439900596,-0.1185335716939008,0.3083040393863311
28.20381254167296,0.158660888671875,-0.9477386474609375,0.1136322021484375,0.07283266212370502,-0.09916599898240853,0.3486115151168984
28.26319154165685,0.1317291259765625,-0.9386138916015625,0.137847900390625,0.1401818755629369,-0.03992318158526885,0.3426598827127893
28.322560541681014,0.1095123291015625,-0.9552154541015625,0.181671142578125,0.1667548969197475,-0.04838058225903349,0.3566223036758567
28.381945541710593,0.049285888671875,-0.967742919921875,0.1593170166015625,0.2298164210039518,0.01023213122419344,0.398641126722909
28.441295541706495,0.0837249755859375,-0.967529296875,0.16802978515625,0.2656609713797644,-0.06731512497727886,0.4123042083794515
28.500691541703418,0.0325164794921875,-0.9590301513671875,0.228607177734375,0.2964567009610046,0.1308789212430721,0.2459834067173869
28.56006654165685,0.0013427734375,-0.928375244140625,0.200775146484375,0.3057772321440639,0.05176173157899809,0.07098709148828011
28.619454541709274,-0.008392333984375,-0.94317626953125,0.2497711181640625,0.3528757686543333,-0.1324270167847351,0.04319594024886723
28.678831541677937,0.0272674560546875,-0.9448699951171875,0.3667144775390625,0.1221943529283237,-0.04642981676055045,0.07838002667434008
28.738208541763015,0.0142669677734375,-0.9477386474609375,0.270660400390625,-0.03299070695168359,0.01701280567564419,0.1117164119355159
28.79758354171645,0.0235137939453125,-0.9532470703125,0.216644287109375,-0.03708345291491736,0.04277303026776264,0.0186969887490103
28.8569665417308,0.0022735595703125,-0.9468994140625,0.2635345458984375,-0.01949913286934217,-0.0754801105633528,-0.01196718067438006
28.91634754172992,0.0122833251953125,-0.951690673828125,0.266937255859375,-0.05335057348533936,-0.01847754427518777,0.05560573829641846
28.97572154167574,0.0213470458984375,-0.993133544921875,0.3204498291015625,-0.1536372306544532,0.1948246148091827,0.2354745730559342
29.035099541652016,0.00048828125,-0.95709228515625,0.2709197998046875,-0.4362417655215197,0.121028953635305,0.4472049344649399
29.09447754174471,0.0986480712890625,-1.029281616210938,0.263824462890625,-0.6786842332535372,0.4907462867071904,0.969567470685224
29.153859541751444,0.1939697265625,-1.329376220703125,0.3724365234375,-0.7909082436928222,0.4676092757888,1.565608488991422
29.213236541720107,0.0499114990234375,-1.535369873046875,0.176025390625,-0.8729138978751962,0.9994963413316434,2.099047644817564
29.272612541681156,0.0052337646484375,-1.062820434570312,0.240325927734375,-0.5388309917691161,0.8560265270868948,1.358920024158154
29.331991541665047,-0.5249481201171875,-0.23150634765625,-0.140869140625,-0.3050613744430506,0.6859077913942682,0.8172969743021994
29.39137254166417,0.312469482421875,-0.2190093994140625,-0.00323486328125,0.3340381649997668,-0.5114811263223293,-1.758265823305498
29.450749541749246,0.1048583984375,-0.379364013671875,0.127838134765625,1.199182556710766,-1.206543800279854,-2.700976379661709
29.510129541740753,-0.014404296875,-0.8048858642578125,0.15576171875,1.344093141105247,-1.528358588508375,-3.610834713442921
29.569502541678958,-0.219482421875,-1.15740966796875,0.1316070556640625,1.378979486120849,-1.408613811150706,-4.12057386609623
29.62886354175862,-0.275390625,-1.291946411132812,0.200439453125,1.11363383301415,-0.773994507609729,-2.350843666930158
29.688232541666366,-0.3547210693359375,-1.508270263671875,0.103057861328125,-0.1691623945451792,-0.5591075013606523,1.005903640598265
29.747636541724205,0.9983367919921875,-1.624649047851562,-0.39752197265625,0.3090348107894488,-0.273448587039374,-0.7898685456032553
29.80709154170472,-0.6061553955078125,-0.8424530029296875,0.515960693359375,-0.1209511893314747,-1.500632684715669,2.458476387650146
29.866485541686416,0.282135009765625,-0.9768524169921875,0.1367340087890625,-0.2595633977479189,0.8406318580895827,0.6663852227073332
29.925847541657276,0.11590576171875,-0.8353118896484375,0.4685516357421875,-0.260509352567115,0.170031384008872,0.7654505542005368
29.98522554174997,0.304931640625,-0.9405975341796875,0.2610626220703125,-0.3830786785769219,0.6213293307531547,0.8169070875186117
30.044598541688174,-0.2022705078125,-0.9857025146484375,0.268646240234375,-0.3009707590086889,-0.2395875590434526,1.293307724381872
30.103975541656837,0.02484130859375,-1.024002075195312,0.344879150390625,-0.4224902669167865,0.3985127623583671,0.9589798074555049
30.16335354174953,-0.069580078125,-1.304183959960938,0.4092559814453125,-0.6196717792906894,0.1794874700914164,1.480397454121029
30.22273454174865,0.237060546875,-1.503829956054688,0.3473968505859375,-0.9532827732516075,0.8150189063057456,1.508404854040956
30.282109541702084,1.165328979492188,-1.592788696289062,0.6434173583984375,-1.607359930665031,1.530284852924829,2.161066275018893
30.341485541663133,-0.107513427734375,-1.516464233398438,0.727874755859375,-1.518561085174083,1.119961770080288,3.867877162902971
30.400849541649222,-0.12908935546875,-0.4867401123046875,0.3497161865234375,-0.07969562825283921,-0.4842377873191457,1.579639619510614
30.4602115417365,0.046661376953125,0.049652099609375,-0.06195068359375,1.269570969585996,-0.500143783245753,-2.934707647468078
30.519568541669287,0.06610107421875,-0.2495269775390625,0.01019287109375,1.849638347673899,-0.6815809535712164,-4.044168839686292
30.578941541723907,0.00213623046875,-0.8739776611328125,0.062347412109375,2.795673594334965,-1.036534520508029,-6.038373691341834
30.638313541654497,-0.7239227294921875,-1.819198608398438,-0.0787353515625,3.068140540196536,-1.099714288944633,-6.365846631622338
30.69769154174719,-0.9893951416015625,-1.832763671875,-0.2958526611328125,1.853051987559163,-0.7676689673885728,-3.195826863924821
30.75707454176154,1.025146484375,-0.413299560546875,1.763168334960938,-0.7508953135788177,-1.847481187190935,2.793503650678768
30.81644654169213,0.0103759765625,-0.9512481689453125,-0.108795166015625,-1.612219667022207,4.010594101507554,-1.666233900251194
30.875820541754365,-0.6326141357421875,-0.852813720703125,0.744842529296875,0.4685379200609106,-1.095289180477358,2.602439951960996
30.93520054174587,0.5233154296875,-0.961181640625,0.1785888671875,-0.1732737826360435,1.72672600651569,0.08959086959913763
30.994575541699305,0.1946258544921875,-0.7761383056640625,0.44476318359375,-0.4508779662403772,0.4839959722921666,1.004923064684898
31.05394754174631,0.067779541015625,-0.9409637451171875,0.361358642578125,-0.368561254842682,0.8077561996969905,1.121836369171594
31.1133115417324,-0.0549774169921875,-0.9505615234375,0.3194732666015625,-0.4989075438677382,0.2526413094425849,1.261137271045933
31.17268754169345,-0.017608642578125,-0.986724853515625,0.3564605712890625,-0.5936042259087758,0.5082621635127506,1.300908918765177
31.232061541755684,0.2938385009765625,-1.245101928710938,0.229217529296875,-0.7047336771400382,0.6791681296236046,1.488701723032114
31.29143454169389,0.2321929931640625,-1.659683227539062,0.612884521484375,-1.296943471902049,0.768450338852402,2.625821441067455
31.350810541654937,0.9709930419921875,-1.919143676757812,0.3572235107421875,-2.148511601008042,2.724927785241446,2.755196741559069
31.41018454171717,-0.5031280517578125,-0.78302001953125,0.271881103515625,-1.805603511681657,0.3441065118169204,4.46787723648568
31.469565541716293,0.145904541015625,-0.1132659912109375,0.0505218505859375,-0.1900399795947463,1.416598767047091,0.9467905191462123
31.528948541730642,0.0217742919921875,0.1415557861328125,-0.0289764404296875,1.309997754933399,-0.6816469999662503,-2.414658865602854
31.58832854172215,-0.0385284423828125,-0.3802337646484375,0.1034088134765625,1.969089644679441,-1.285213845196904,-3.535414524004095
31.647702541667968,0.023406982421875,-1.211898803710938,0.254241943359375,2.606108722678689,-1.536686293237053,-6.194961171851878
31.707055541686714,-0.7975311279296875,-2.316329956054688,-0.1157379150390625,2.551963994556288,0.0955148051279099,-6.668132992209526
31.766424541710876,-1.57373046875,-2.222671508789062,-0.1618804931640625,0.4775101097733876,-1.239666333705496,0.5532450848530609
31.82580654171761,1.075851440429688,-2.02630615234375,-0.8365478515625,1.197553234755855,-3.145780474403943,1.885667721429363
31.885167541680858,-0.6822662353515625,-1.066558837890625,0.7086334228515625,1.005745448829514,-3.668867390440728,3.722565506448323
31.944539541727863,0.51861572265625,-1.000686645507812,0.43524169921875,0.06902913545485385,1.755464444154844,-0.7931783222060058
32.00391954171937,0.005279541015625,-0.8390045166015625,0.2301025390625,-0.4776438004601096,-0.06982728483355061,0.598517225487754
32.06330054171849,-0.0180206298828125,-0.908935546875,0.30364990234375,-0.4116607886600883,0.2683520956612894,1.508293533907391
32.12265754165128,-0.1251678466796875,-0.9777984619140625,0.2527923583984375,-0.466267841547727,0.1798749600300229,1.33443651899262
32.18204454169609,-0.0265655517578125,-1.004501342773438,0.3919525146484375,-0.4176699453437431,0.311022327910975,1.161402420854684
32.241402541752905,0.149169921875,-1.153411865234375,0.361114501953125,-0.528980491529131,0.6670571382503603,1.257617104717066
32.30077054165304,0.0018768310546875,-1.382583618164062,0.457122802734375,-1.110413005991809,0.7941509086361027,2.470003614112445
32.36013254174031,1.10247802734375,-1.994659423828125,0.42425537109375,-1.99063781369149,2.339352393142575,2.941793253864343
32.419494541711174,-0.2501373291015625,-1.012725830078125,0.442779541015625,-2.046319185762867,1.444118009539207,3.941865104307552
32.47886454174295,-0.0822906494140625,-0.180755615234375,0.1057891845703125,-0.1576016122531452,1.801826882939816,1.27191881240301
32.53820562502369,-0.08843994140625,0.035614013671875,-0.0955047607421875,1.633577686332425,-0.4267222962050314,-2.067704901948421
32.59760262502823,0.0263824462890625,-0.4041748046875,-0.0587921142578125,2.170590271709234,-0.9789953272602134,-3.439570019533233
32.65696962503716,0.0954132080078125,-0.9208221435546875,0.1481475830078125,2.742029540497499,-1.070508200218061,-5.567961971137944
32.71634562499821,-0.478179931640625,-2.078277587890625,0.246673583984375,2.812436062868142,-1.114332113851969,-6.18140408400672
32.77573462505825,-1.055938720703125,-2.009628295898438,-0.362945556640625,1.442276966277635,-1.662740898165446,-1.205701442427062
32.835095625021495,0.677093505859375,-0.2815704345703125,1.69049072265625,-0.7558264226532084,-1.334528930682446,2.403052276940071
32.89448162505869,0.053131103515625,-0.8337554931640625,-0.048431396484375,0.4872956288827747,-0.4563702033564476,2.774471103632408
32.95386262505781,-0.53857421875,-0.80999755859375,0.6515960693359375,-0.1940304601721211,-1.21863002425496,2.120638424407054
33.013240625034086,0.5574951171875,-0.9432830810546875,0.223175048828125,-0.07879388190773839,1.202387404766567,0.1806917515363502
33.072618625010364,0.022674560546875,-0.849853515625,0.3344268798828125,-0.3546196065361171,0.156923038807393,1.421079801897258
33.13196562498342,0.0572662353515625,-0.935791015625,0.276031494140625,-0.4264312126978858,0.4858050576206573,1.098713739323091
33.19135262502823,-0.0624847412109375,-0.9340667724609375,0.2888031005859375,-0.4104597030084626,0.2533542376663991,1.130065004307721
33.25073962507304,-0.045379638671875,-0.9959564208984375,0.2865142822265625,-0.4370764002071506,0.4777761595662865,1.027382034789754
33.310096625005826,0.099700927734375,-1.199844360351562,0.23773193359375,-0.5908707573659184,0.6340864050068522,1.232370337583115
33.369483625050634,-0.067779541015625,-1.254592895507812,0.438934326171875,-0.7937668808069133,0.5752228217489399,1.842619852937104
33.42885862500407,0.6833038330078125,-1.75665283203125,0.4188995361328125,-1.528717848939427,1.284198914505474,2.355679967469742
33.48824362503365,-0.14508056640625,-1.573211669921875,0.53289794921875,-1.948803281391872,1.769584257938335,3.530080212340666
33.547628625063226,-0.8104705810546875,-0.3665008544921875,0.1350250244140625,-0.210193184827812,2.0176513218926,1.878142160821017
33.607019625022076,0.134124755859375,-0.0194091796875,-0.1671295166015625,0.09581254653778075,0.350110075862286,-0.9961708520784615
33.66640362504404,-0.07293701171875,-0.170562744140625,-0.0044403076171875,1.395658864028016,-1.106993240836038,-2.913031114091487
33.72579162509646,-0.148193359375,-0.65948486328125,0.18365478515625,2.018574906158639,-1.139793531769781,-5.234974689504322
33.78516362502705,-0.028961181640625,-1.245498657226562,0.0697174072265625,2.127920572091767,-0.7992290242026658,-5.73858803901823
33.84453762508929,-0.5173187255859375,-1.983917236328125,0.0928497314453125,2.578252590308678,-0.8203460274342311,-5.811691810940906
33.90391462505795,-1.378463745117188,-1.698165893554688,-0.5682373046875,1.019183759690054,-0.7020665213083239,-0.3541844460139982
33.9632976250723,1.930419921875,-2.723434448242188,-1.352798461914062,-0.4152033255421117,-1.812499501008308,2.535326694594345
34.02267562504858,-0.3936920166015625,-1.084182739257812,0.5738372802734375,-0.08543846882748608,0.8249210718708783,3.425189482279023
34.082055625040084,-0.399810791015625,-0.8204345703125,0.1330718994140625,-0.2165778472251679,0.2361100032920271,0.8041803733013412
34.141436625039205,0.5941162109375,-0.986602783203125,0.7234649658203125,-0.08129352490688677,0.01366361428876054,0.8056317960954343
34.20081362500787,0.1100921630859375,-0.899688720703125,0.2817230224609375,-0.4046311086467151,0.356831894453646,1.058576705902288
34.260190625092946,-0.0237579345703125,-0.960357666015625,0.2888946533203125,-0.2657914662731782,-0.003469566268155231,1.212908488969034
34.31957162509207,0.10968017578125,-0.9339599609375,0.3707733154296875,-0.3251645122476228,0.4937668440155583,0.950513085717925
34.378945625037886,-0.0722808837890625,-0.958099365234375,0.3728179931640625,-0.3767259741126469,0.2029965246140908,1.336355060241913
34.43832562502939,-0.011199951171875,-0.97979736328125,0.29266357421875,-0.6275398224152194,0.5667374578837294,1.536877774519429
34.49770362500567,-0.1195220947265625,-1.405929565429688,0.3750152587890625,-0.9680105867119636,0.7010473295591506,2.199292756673672
34.55708162498195,0.656982421875,-1.985687255859375,0.4596710205078125,-1.697445082962487,2.414150734466867,2.848371693353235
34.61645762505941,-0.26318359375,-1.355422973632812,0.3927459716796875,-1.748521849509117,2.917531590017612,3.048513042962652
34.675832625012845,-1.161941528320312,-0.0891571044921875,-0.2761077880859375,-0.1471529660323283,0.9845887644977069,2.709246027478623
34.73519062506966,-0.2711181640625,0.1655120849609375,-0.358917236328125,-0.2619586448323362,0.2555638624228379,0.218765367744559
34.794577624998055,-0.372100830078125,0.144317626953125,-0.32879638671875,0.6543892798931803,-0.3568087249521623,-2.185116750191181
34.8539456250146,-0.6331024169921875,-0.13067626953125,-0.2596893310546875,1.273428292108867,-0.9008943998681137,-3.564495177843324
34.91332162509207,-1.001876831054688,-0.726715087890625,-0.1989288330078125,1.131625616706508,-0.9291801001219543,-3.445934441906304
34.97267762501724,-0.5930938720703125,-0.799163818359375,-0.08056640625,0.8531069035838409,-0.5122475840840541,-2.76102693381747
35.032051625079475,-0.218170166015625,-1.580490112304688,0.0274200439453125,1.321004067086478,0.07226168038599204,-2.703302917190002
35.091435624985024,0.8288726806640625,-1.1226806640625,0.4222564697265625,0.1584234637655436,-0.2006265775600293,-1.261870172977923
35.150796625064686,0.3343353271484375,-0.7930450439453125,0.3984375,0.2993494265370487,1.214438475015285,-0.01219248410260077
35.210172625025734,-0.071929931640625,-0.90386962890625,0.2611541748046875,0.2121197155603753,-0.1305971587997417,0.4470861574803224
35.26955762505531,0.29693603515625,-0.9662017822265625,0.267822265625,0.1266972256994297,0.2240922225569355,-0.08768511152307694
35.32893362501636,0.0052642822265625,-0.926055908203125,0.2760467529296875,0.09768794457741455,-0.2337395236057476,0.5195859244677674
35.38831462501548,0.08282470703125,-0.9152984619140625,0.265960693359375,0.01347186669027483,-0.04859150461736776,0.2798082157224833
35.44768662506249,0.1049957275390625,-0.94403076171875,0.2577667236328125,0.06513293078006793,-0.1624552233398146,0.2768249426693765
35.507062625023536,0.02484130859375,-0.92633056640625,0.2875823974609375,0.05478441941623802,-0.09200156301787736,0.3112175376188778
35.56641262501944,0.0757293701171875,-0.9417572021484375,0.3468170166015625,0.07970628089719954,-0.009101353025345796,0.2015927724035101
35.62579862505663,0.086700439453125,-0.9429779052734375,0.27557373046875,0.06694228242466777,-0.008140484504045208,0.1855877068843519
35.68519562506117,-0.0496368408203125,-0.9235687255859375,0.306793212890625,0.1567025290691344,-0.1673615650160676,0.2332199408770731
35.744558625039645,0.0076446533203125,-0.9467926025390625,0.330169677734375,0.1565011940907244,0.00780545883891324,0.09591800771694789
35.80391562508885,-0.00927734375,-0.94073486328125,0.3424072265625,0.119012940690115,-0.03862036318000209,0.1198624890778503
35.86330962507054,-0.0375213623046875,-0.9304046630859375,0.3646392822265625,0.0252206681552684,-0.0653169552113924,0.07214769709133664
35.92268762504682,-0.00213623046875,-0.941864013671875,0.328033447265625,-0.02531867248338332,0.04869243842268177,-0.02932832782060662
35.98203962505795,-0.01373291015625,-0.9371795654296875,0.3214111328125,-0.05725796343670362,0.04530303330333792,-0.0634146592447488
36.04141662502661,0.0386199951171875,-0.9275054931640625,0.31512451171875,-0.1029088055784059,0.07750624352068508,-0.04140736126077001
36.10079462500289,0.0286865234375,-0.92327880859375,0.3484344482421875,-0.08197476151372902,0.003516970535558642,0.009516007207071134
36.16017762501724,0.0239715576171875,-0.9286651611328125,0.3172760009765625,-0.1223871657912454,0.02000220399925813,0.05834666369032802
36.219573625014164,-0.0163726806640625,-0.9290618896484375,0.27587890625,-0.08755035557191893,-0.05166186303812012,0.01545166064463974
36.278935624985024,0.0062255859375,-0.9398193359375,0.32073974609375,-0.04408117499520957,-0.08982256461397453,0.0404086758519903
36.33832262502983,-0.0271759033203125,-0.937255859375,0.2729034423828125,-0.063891897712091,0.001477788088884969,0.02553545379611577
36.397710625082254,-0.00189208984375,-0.94000244140625,0.2904052734375,-0.02215643500502323,0.03777986953997308,-0.06118346288348042
36.4570716250455,-0.035064697265625,-0.933502197265625,0.30096435546875,-0.002504436689110516,-0.07710597040884616,0.05094680428543384
36.51647362508811,0.0107574462890625,-0.942108154296875,0.2839813232421875,-0.01918168406740472,-0.008823319007541524,-0.04361352390779166
36.57584962504916,-0.03021240234375,-0.933258056640625,0.305145263671875,-0.01820430394734564,-0.02907612646537611,-0.05085093048619099
36.635237624985166,0.00335693359375,-0.9433746337890625,0.290802001953125,-0.02748382244961774,0.03098374875419987,-0.1112082807995288
36.69461762509309,0.035858154296875,-0.9509735107421875,0.2967071533203125,-0.02313967407948048,0.04781918790124479,-0.1284463899033937
36.75397262501065,0.05780029296875,-0.946746826171875,0.2867584228515625,-0.0201185841388946,0.01645221026618251,-0.06947441598911511
36.81336862500757,0.011810302734375,-0.9443359375,0.2847747802734375,-0.02780766283817137,-0.02524516923729713,0.01945172860193876
36.872748624999076,0.0019073486328125,-0.943145751953125,0.288818359375,-0.01293603867895089,-0.03385383746097827,0.01209234924561379
36.93212862499058,0.01275634765625,-0.94097900390625,0.27130126953125,-0.0190868755325979,0.01702692042942161,-0.003394465125414997
36.991499625029974,0.0021514892578125,-0.9390411376953125,0.2830657958984375,-0.006430468768105328,-0.008414257464105353,0.007551126954810672
37.05087662499864,-0.0220489501953125,-0.9376068115234375,0.2806396484375,-0.005173989365805944,0.03063727149638057,-0.02165842388117841
37.11025662499014,0.0184783935546875,-0.9430084228515625,0.275146484375,0.008878979074324181,0.07159802064234429,-0.07113516324488851
37.16963162505999,0.0203094482421875,-0.9451141357421875,0.283203125,0.01642957339691684,0.09623305967390426,-0.04582181708368536
37.22900762502104,0.017913818359375,-0.9478302001953125,0.284576416015625,0.009892578185208339,0.06446607524311208,-0.03588130199885559
37.28837762505282,0.0427703857421875,-0.951141357421875,0.2964324951171875,0.009747702221908027,0.0337608931389345,-0.02381771489301466
37.347762625082396,0.0187530517578125,-0.9442596435546875,0.283935546875,-0.005603290933526717,-0.06157148545430496,0.003874366753847276
37.407138625043444,0.0005340576171875,-0.9417266845703125,0.2863616943359375,-0.01077408450602457,-0.02640524220813565,0.0141429832849748
37.46651462500449,-0.0040130615234375,-0.9378814697265625,0.2776031494140625,-0.01273097527501479,0.01069898336328433,0.004139617598419167
37.52589854167309,-0.00537109375,-0.9440460205078125,0.285919189453125,-0.005446697061430058,-0.02534024408821296,0.01626552267376796
37.58527454175055,0.0047149658203125,-0.949249267578125,0.2869415283203125,-0.01074905079177782,-0.02111220954160316,0.01195279960449364
37.6446505417116,0.0253753662109375,-0.9477081298828125,0.29132080078125,-0.02572773402681949,-0.03699317175396367,0.01318690845363636
37.70402154175099,0.0073699951171875,-0.9451751708984375,0.2751922607421875,-0.03860571579400665,-0.05696208623959582,0.0336533014308953
37.763377541676164,-0.0172882080078125,-0.9417724609375,0.276702880859375,-0.03311054920073715,-0.01986158909370195,0.0257852583063652
37.82276354171336,0.0025482177734375,-0.9406280517578125,0.2685394287109375,-0.03515745481457205,-0.005252818934072289,-0.005287972660461335
37.882133541745134,0.006195068359375,-0.9452362060546875,0.2762908935546875,-0.0191438671799256,0.004269579859615034,-0.004319647288108524
37.94159554166254,0.004425048828125,-0.9461517333984375,0.270965576171875,-0.007436078395719249,0.002016545577407999,-0.01494832319861476
38.000970541732386,0.007354736328125,-0.9434661865234375,0.2734222412109375,-0.00744619840786155,-9.880327644193974e-05,-0.01385909031277236
38.060346541693434,0.005340576171875,-0.9434051513671875,0.2742767333984375,-2.077265650261806e-05,-0.006513825710224809,-0.01591664857096757
38.119719541748054,0.0062255859375,-0.9500579833984375,0.2692718505859375,-0.006183327418945975,0.04342577105094107,-0.01753638314595377
38.179072541650385,-0.007080078125,-0.942169189453125,0.2646484375,0.007569769082441227,0.02315325620103989,-0.02263580400123749
38.23844954173546,-0.0010528564453125,-0.943084716796875,0.2702789306640625,0.01484179675501159,-0.01725648491538644,-0.02431838917794956
38.297828541719355,0.005767822265625,-0.9432525634765625,0.28118896484375,0.02437218503196916,-0.02898025266613326,-0.02525049555947729
38.35719454172067,0.0068206787109375,-0.94232177734375,0.290008544921875,0.01268037521430328,-0.02356817669887424,-0.01785436458010923
38.41657754173502,0.0187835693359375,-0.9471893310546875,0.276458740234375,-0.006358030786455173,0.004072772255058179,-0.02243180586173742
38.47596054174937,0.006561279296875,-0.946197509765625,0.273834228515625,-0.008581237664453321,-0.01261992145755849,0.01186012159855888
38.53534454165492,0.008941650390625,-0.946075439453125,0.272491455078125,-0.01284336067301613,-0.01369743643460455,0.008672317773734031
38.594732541707344,0.0032958984375,-0.946929931640625,0.2753753662109375,-0.01398053045847997,-0.02961994395997029,0.009913350841710956
38.654115541721694,0.00457763671875,-0.946624755859375,0.270599365234375,-0.02033323492275498,-0.02334793327672468,-0.004015514291621476
38.71350054175127,-0.0089111328125,-0.9431915283203125,0.2696075439453125,-0.01822454397163024,-0.02757570150722547,-0.0007701861872509157
38.772881541750394,0.00250244140625,-0.9422760009765625,0.2582244873046875,-0.01599760866810598,-0.00865580617497554,-0.02336178171439309
38.832268541678786,0.008544921875,-0.9521484375,0.293121337890625,0.008457134357655629,-0.01615633306907471,-0.02220170874355458
38.89164854167029,0.0201416015625,-0.954315185546875,0.2747039794921875,-0.01170352772646222,-0.0001139832946553914,-0.01705861204639355
38.951027541654184,-0.0056610107421875,-0.934722900390625,0.2991790771484375,-0.0349944693558592,0.02513544700038587,-0.05358866008679244
39.010407541762106,0.03271484375,-0.9610748291015625,0.2347412109375,-0.06252516344066233,0.05579322483716004,-0.08058725458579775
39.0697795416927,-0.0019378662109375,-0.949432373046875,0.27484130859375,0.03389245329678442,-0.04052692020438982,-0.005932457644260511
39.12914954172447,0.0311737060546875,-0.94805908203125,0.2622222900390625,-0.02751471511826266,0.03152437045548596,-0.04939205084104558
39.188509541680105,0.0653533935546875,-0.9539947509765625,0.27520751953125,0.01484232938722961,-0.004657336114330572,0.08000082651376229
39.24788354174234,0.0242767333984375,-0.95782470703125,0.2404632568359375,-0.05101125278381376,0.02942366898763146,0.06680326541576563
39.307258541695774,0.0240631103515625,-0.948577880859375,0.2725982666015625,-0.01408386110877504,-0.04844369917686837,0.04422977938403599
39.36663254175801,0.0254669189453125,-0.956634521484375,0.2635040283203125,-0.02913125389994076,-0.07573071402192925,0.07756669727742987
39.42600854171906,-0.0014495849609375,-0.947662353515625,0.268646240234375,-0.04781013315353851,-0.1939308579473521,0.1620022196383921
39.48538054164965,-0.024444580078125,-0.9477996826171875,0.2640533447265625,-0.07096685146399551,-0.1400822733381679,0.1155636144462444
39.544750541681424,-0.033935546875,-0.94873046875,0.2472076416015625,-0.1098793634155793,-0.0452487048171003,0.01217277671053418
39.60412454174366,-0.031402587890625,-0.9434661865234375,0.2379913330078125,-0.1118170794247209,-0.009626262076200414,-0.0457797391384621
39.66349954169709,0.0118408203125,-0.9597625732421875,0.234588623046875,-0.08150764305852913,0.08818658475633885,-0.1491711095063903
39.72286954172887,0.0083465576171875,-0.9586639404296875,0.2309112548828125,-0.05193590231428927,0.03729144579605255,-0.1272777948170669
39.78222554165404,0.0271148681640625,-0.963348388671875,0.232513427734375,-0.04569611588023362,0.01007100997824365,-0.0790090653238168
39.84161454171408,0.02349853515625,-0.9579010009765625,0.2290496826171875,-0.03707439816721109,0.03344477591754209,-0.0760652070548432
39.9009735416621,0.0141143798828125,-0.9603118896484375,0.2195281982421875,-0.02745186451653679,0.04417917932332448,-0.06019063642909888
39.96036154171452,0.0335540771484375,-0.9611663818359375,0.23468017578125,-0.01156557598199612,0.02383502544010017,-0.07274957149769455
40.01972154167015,0.0327606201171875,-0.9564971923828125,0.222930908203125,-0.009378588094823045,0.03772287789264538,-0.06330866543336365
40.07910254166927,0.02691650390625,-0.951446533203125,0.223388671875,-0.03508288630404983,0.01063560012934044,-0.01079272663365512
40.13848954171408,0.0298309326171875,-0.957916259765625,0.213287353515625,-0.03509460421284619,0.007401989933766235,-0.01608655824851463
40.19785654172301,0.005859375,-0.9554290771484375,0.2277374267578125,-0.0181760744397908,-0.01696167298271467,-0.001953162343464113
40.257254541735165,0.0532989501953125,-0.9600067138671875,0.2107086181640625,-0.00577107008220171,-0.1010456580797865,-0.01487641784918262
40.31663454172667,0.0042266845703125,-0.9678192138671875,0.227691650390625,0.005199023080052689,-0.02878291242935839,-0.009273126915655907
40.37601654173341,0.023223876953125,-0.9661102294921875,0.2158966064453125,-9.534116702483673e-05,-0.02698714290631796,-0.04873371741957799
40.43539854174014,0.0648040771484375,-0.9548797607421875,0.229034423828125,-0.01998595871660865,0.2820577878952732,-0.07027283168392086
40.494782541762106,0.0448760986328125,-0.967742919921875,0.218109130859375,0.0138505681972841,-0.0002000033978649508,-0.01811162594141088
40.554161541746,0.02984619140625,-0.9615325927734375,0.22589111328125,0.01373338910932062,-0.02336630908824623,0.005593703553602432
40.61354054172989,0.018890380859375,-0.9595794677734375,0.2228546142578125,0.0031760859160285,-0.003131344809715168,0.007497331100791071
40.672922541736625,0.0426788330078125,-0.9611358642578125,0.2207489013671875,0.01068992861557806,0.007245928693887591,-0.01819524919963937
40.73230254172813,0.0384521484375,-0.961669921875,0.222930908203125,0.01588415800566861,-0.01916064509479309,0.001284708909854225
40.79168254171964,0.0231781005859375,-0.9595489501953125,0.225189208984375,0.01375416176582323,-0.01799870791119152,0.01192989641911896
40.8510665417416,0.028472900390625,-0.960205078125,0.2249755859375,0.005265069475086654,-0.01159913181173111,0.01185532790859674
40.91044454171788,0.031005859375,-0.9589080810546875,0.2243499755859375,0.009503756666056769,-0.01698883722583348,0.004455468503702566
40.969797541736625,0.0360107421875,-0.959136962890625,0.22161865234375,0.01380955551649688,-0.008652077749449429,-0.01268889732979154
41.02919254172593,0.027679443359375,-0.951873779296875,0.22308349609375,0.01266226571889075,-0.02554370959549501,-0.0007781756705211534
41.08854054170661,0.02972412109375,-0.9602508544921875,0.2293548583984375,0.02135322562025533,0.009226787912688529,-0.03100292351404844
41.14791754167527,0.0246124267578125,-0.910064697265625,0.2178192138671875,0.01476935877336144,-0.03088973916772008,-0.003915912066852512
41.20730554172769,0.0338592529296875,-0.959930419921875,0.2300567626953125,0.02090421666046797,-0.08607576327634205,0.005222991529863402
41.266682541696355,0.026336669921875,-0.9665679931640625,0.231109619140625,-0.0009379653359259077,0.02644039593452469,-0.01414884223937298
41.32606854173355,0.037139892578125,-0.9621734619140625,0.2233123779296875,-0.0175944400577175,0.1081142202450748,-0.03530978762892459
