time,accelerometerAccelerationX,accelerometerAccelerationY,accelerometerAccelerationZ,gyroRotationX,gyroRotationY,gyroRotationZ
0.0,-0.0570831298828125,-0.952667236328125,0.1817779541015625,-0.06428444765676869,-0.0661571825353124,0.1882982722418345
0.059363999986089766,0.0404052734375,-0.919097900390625,0.2062835693359375,-0.0493995076920978,0.1344701939730439,-0.06972422049936454
0.11873099999502301,-0.0001983642578125,-0.9987640380859375,0.1965484619140625,-0.03617211918989224,0.005336442192300777,-0.009668872653641683
0.17809599998872727,0.036163330078125,-0.945404052734375,0.188812255859375,-0.03391961753990323,0.0261013755277576,-0.06425781604586789
0.23745700006838888,0.0061492919921875,-0.9660797119140625,0.1935577392578125,0.01044278726641871,-0.04230165075481862,0.02605317231202717
0.2968160000164062,-0.0012359619140625,-0.9589691162109375,0.1983795166015625,0.01146650638944517,-0.05534181903239161,-0.006845389265939674
0.3561750000808388,-0.01092529296875,-0.947418212890625,0.1849365234375,0.0104624946584853,-0.04493897918232409,-0.03254223062411424
0.4155360000440851,0.05609130859375,-0.954559326171875,0.23028564453125,0.02422784170088686,-0.05167118410193539,0.05281048441627129
0.4748959999997169,0.0328826904296875,-0.9637908935546875,0.1660308837890625,-0.005699697364987585,-0.07249284276861091,0.09139862334708343
0.5342589999781922,-0.03424072265625,-0.963836669921875,0.2198638916015625,0.003870638328321165,-0.07918456763965301,0.05843401537408261
0.5935990000143647,-0.0197601318359375,-0.937408447265625,0.1585235595703125,-0.0169190624052734,0.01405696318176524,-0.09929170018586027
0.6529909999808297,0.0728607177734375,-1.008438110351562,0.2133941650390625,0.03361175611789007,0.1199817986946859,-0.1185570075114935
0.7123390000779182,-0.0504913330078125,-0.930938720703125,0.166412353515625,0.1085035743964444,0.1948296748152538,-0.1598519833742622
0.771701000048779,0.14166259765625,-0.9539794921875,0.180145263671875,0.09325165083356056,0.1229805180821151,-0.1196281309019234
0.8310899999924004,0.073699951171875,-0.95733642578125,0.2601318359375,0.2556698562342231,-0.1850755810067296,0.1854960941428531
0.8904399999883026,0.024658203125,-0.964141845703125,0.2187347412109375,0.260372998719303,-0.0805321271512331,0.2355081288856692
0.9498240000102669,-0.0144805908203125,-0.9702606201171875,0.3041229248046875,0.2603373123606959,-0.3111549533332609,0.3489060607334611
1.0091890000039712,-0.042205810546875,-0.9540557861328125,0.2726593017578125,0.0650748738683042,0.0606383138083412,0.2743636491899253
1.0685340000782162,-0.0150146484375,-0.9509735107421875,0.27069091796875,0.01813665965565763,0.2706770352929286,0.2208612755224514
1.1279100000392646,-0.05902099609375,-0.9440155029296875,0.2595672607421875,-0.0258289341482425,0.1948789432954203,0.1641183674405691
1.1872610000427812,-0.0082244873046875,-0.9537506103515625,0.26751708984375,-0.04921468431244631,0.2080328285515397,0.2023347290832062
1.246629000059329,0.010498046875,-0.9417724609375,0.2451171875,-0.1005694848768803,0.1701102135771384,0.3434279383711681
1.3060140000889078,-0.097808837890625,-0.967559814453125,0.277496337890625,-0.05866677565335554,0.03986539098961413,0.5292851571578361
1.3653800000902265,-0.1266021728515625,-0.9799652099609375,0.2712860107421875,-0.1150586791035654,0.07144861730519084,0.7197065014206817
1.4247300000861287,-0.1328887939453125,-0.9803466796875,0.2585906982421875,-0.1705813267739734,0.2918478343785135,0.876068145870286
1.484106000047177,-0.2243194580078125,-1.070144653320312,0.287750244140625,-0.1532856933905628,0.3606063926666153,0.9691168638287826
1.5434629999799654,-0.2113037109375,-1.274185180664062,0.133758544921875,-0.3690060027447252,0.715817753596948,1.178277274785862
1.6028360000345856,0.0379180908203125,-1.514785766601562,0.2527008056640625,-0.6260388648248508,0.9026776525340308,1.560885639114276
1.6622020000359043,0.6419830322265625,-1.355438232421875,0.5134429931640625,-0.5449450769997199,0.9521131129008447,1.653111440295938
1.721568000037223,-0.27008056640625,-0.8177490234375,0.8639373779296875,0.3785358583894647,0.6837463698535599,4.693253102688034
1.7809200000483543,0.79205322265625,-0.20941162109375,0.3044586181640625,0.4752277807191896,1.779256592701394,-1.57775356882662
1.8403089999919757,0.530670166015625,-0.9840545654296875,0.2150115966796875,0.03519953275979531,0.924630888347881,-2.262431512429489
1.8996640000259504,0.08599853515625,-1.192886352539062,0.2071075439453125,0.9449353611308631,-0.7483464020995029,-3.242297959682268
1.959021000075154,0.0460357666015625,-1.419891357421875,0.2607879638671875,0.8388685791318412,-1.779849678676155,-4.721095919252595
2.0183820000384003,-0.2891387939453125,-1.576934814453125,0.334808349609375,0.4620451333232974,-0.3332338903505628,-4.658355039763636
2.0777579999994487,-0.4861602783203125,-1.607925415039062,-0.00634765625,0.2426352805949392,-0.06104231534570622,-4.224441409667063
2.137105999980122,-1.241592407226562,-1.211837768554688,0.4573822021484375,0.3135137151107441,-2.422725580544705,-1.388640369291221
2.196485000080429,-1.95233154296875,-1.122756958007812,0.2365875244140625,0.7334175199768457,-2.323796602899313,2.65768722877469
2.2558480000589043,0.8106536865234375,-2.213134765625,1.507400512695312,-1.682484509222858,-1.44441495200075,-1.855505291555344
2.3152070000069216,-0.6441192626953125,-0.6508636474609375,0.7108612060546875,0.7808212547480381,1.482357008051109,3.819119477033582
2.374569999985397,0.11767578125,-0.7220458984375,-0.3216552734375,-0.19459984401318,0.8172514342475591,0.4449662812526193
2.433932000072673,-0.0032501220703125,-1.020278930664062,0.29119873046875,0.5855529573012482,-0.95682823961083,0.008697884120198791
2.4932940000435337,0.0482177734375,-0.98541259765625,0.127288818359375,0.06225724943500037,0.4056588225113767,0.4848018448380245
2.552652999991551,-0.0388641357421875,-0.9700927734375,0.2480010986328125,0.2267543183825787,0.3148282514248072,0.7246424041850346
2.612016999977641,0.034454345703125,-0.9881591796875,0.3450927734375,0.1206188268274328,0.3917664426849784,0.7386666104853918
2.671377000049688,-0.02117919921875,-1.196914672851562,0.3083648681640625,0.1012576457025568,0.6379637012378986,1.18468537300081
2.7307179999770597,0.1158905029296875,-1.744918823242188,0.0250701904296875,-0.1960193088741922,1.12921439065555,1.735526688653966
2.790093000046909,1.132675170898438,-2.287506103515625,0.7528533935546875,-0.3215351563140628,1.270725716234654,2.687887475536188
2.84942600002978,0.4023895263671875,-1.995040893554688,-0.0066680908203125,-0.7155093595427169,3.63064064246984,2.697908418085938
2.908778000040911,-0.5619659423828125,-0.17254638671875,0.018096923828125,-0.3227133387803138,-0.3984533738660583,4.745369034692013
2.968133000074886,0.3531646728515625,0.04095458984375,0.1532135009765625,1.054096203684339,-0.1733001479308353,-3.418069254788587
3.0274910000152886,0.2032012939453125,-0.4742279052734375,-0.018768310546875,0.3527063916090042,-1.25676782264544,-5.090565844659212
3.0868470000568777,0.0978851318359375,-1.308547973632812,0.2756805419921875,0.527940260807346,-1.458087621037217,-5.939917158473823
3.1462226667208597,-0.1143341064453125,-2.18878173828125,0.6025848388671875,0.3013910058287034,-2.519534149330175,-7.360882444444208
3.2055546666961163,-2.497802734375,-1.677505493164062,0.627685546875,-2.066034567312724,-0.3824336609609047,-2.405680284303761
3.2649346666876227,-1.8123779296875,-1.33148193359375,0.2774505615234375,0.6765190832873028,-0.3743467059947701,0.06946589387362685
3.3242836666759104,0.81439208984375,-2.795257568359375,0.48046875,0.6216254742663715,7.653607524085793,-4.801821658215077
3.383640666725114,-1.060409545898438,-1.110137939453125,0.6177825927734375,-0.08088180020236051,-0.2620342786072944,3.662088313885932
3.4429976666579023,0.27325439453125,-0.900482177734375,0.1216278076171875,0.6588740431688738,-0.1945710818734072,-1.247846499309784
3.5023536666994914,0.8253021240234375,-0.785980224609375,-0.1204986572265625,-1.185701102640567,1.068088984683833,0.237083122354342
3.5617306666681543,0.0142669677734375,-1.050064086914062,0.4231719970703125,0.6062403926489838,-0.364564116362582,2.136105531386017
3.6210926667554304,0.2615203857421875,-0.9539642333984375,0.18804931640625,-0.009092564593748536,0.5459360392413385,1.679160884182439
3.680458666756749,-0.12884521484375,-0.94732666015625,0.2596282958984375,0.1490161135309477,0.002945988797845653,2.089201405635323
3.7398116666590795,0.0107574462890625,-1.190628051757812,0.2235870361328125,-0.09017250398121095,0.7561611820022314,1.756746223587499
3.7991866667289287,0.1939849853515625,-1.42840576171875,0.27215576171875,-0.2114331526313529,1.048736591990554,2.003948292819707
3.8585466666845605,1.671218872070312,-2.29486083984375,0.8585205078125,-0.2423545834160449,2.119016559303196,3.131573308936697
3.917893666657619,0.496337890625,-1.810546875,0.9041900634765625,-0.04203853043911879,-0.3003473129975014,6.341136225131929
3.977254666737281,0.3514556884765625,-0.0489654541015625,0.0631561279296875,-0.5601309541675699,-1.558593722680154,-1.040439513614413
4.036625666660257,0.8425140380859375,-0.2358551025390625,-0.1541290283203125,0.2805368565967289,-0.0857481944622623,-3.634708354718827
4.095988666755147,0.1095428466796875,-0.802093505859375,0.0428009033203125,0.1740695351697592,-0.9603766354472515,-5.034228802327458
4.155370666645467,0.299346923828125,-1.547225952148438,0.0880126953125,0.1433281340747565,-1.313115517621555,-6.260400366157304
4.2147396666696295,-0.2847747802734375,-2.441207885742188,0.825836181640625,0.1536244474812209,-2.40851282243917,-6.865466837397781
4.274108666693792,-2.9764404296875,-1.439407348632812,0.5743865966796875,-0.6093637479754287,-0.2604883135945034,-1.567481756502184
4.333483666647226,-0.2909088134765625,-1.489608764648438,-1.214157104492188,1.509197943413582,-0.3603877471411198,2.073593151118586
4.392853666679002,1.103897094726562,-0.0316314697265625,0.986602783203125,1.044682461863127,0.2816974621997855,4.02115326891361
4.452217666665092,-0.8215789794921875,-0.586639404296875,0.1939544677734375,0.5793414003747474,0.38604011370909,4.980160773244451
4.511589666712098,0.248260498046875,-1.009170532226562,0.562103271484375,0.6925513130495797,-0.8883951196079358,-0.3906537739815433
4.5709596667438745,-0.0040283203125,-0.975311279296875,0.312957763671875,-0.1188366394259518,0.1444264217083052,0.4375019733493452
4.630327666644007,0.028411865234375,-0.9174957275390625,0.53936767578125,0.1924565319678842,0.7309527643879774,0.6720700063702164
4.689670666703023,0.12451171875,-1.03424072265625,0.2716522216796875,0.04017378504384531,0.7593758837540661,0.9541488332381012
4.749050666694529,-0.0512542724609375,-1.03582763671875,0.3025970458984375,0.09437443954913796,0.7495123340247396,1.059807086325905
4.808432666701265,0.1067047119140625,-1.524169921875,0.2677764892578125,0.01440557096845661,0.9875789617696479,1.284180006061735
4.867821666644886,0.8402862548828125,-2.073760986328125,0.3808441162109375,-0.3048195594160714,1.439896632895322,2.721203620773079
4.927191666676663,1.016082763671875,-2.026687622070312,0.3095550537109375,-0.9292903549910836,2.397951258188133,3.811417082528855
4.986571666668169,0.3037109375,-0.121856689453125,0.318267822265625,1.238156321367421,0.0257349245617627,6.406354377066879
5.045933666755445,0.328399658203125,0.0269317626953125,-0.2562713623046875,-0.8531228825503814,1.154109087893393,-1.718571407257868
5.105315666645765,0.131622314453125,-0.5367279052734375,-0.06964111328125,0.339861433039334,-0.5331387512551807,-4.840607403698773
5.164681666647084,0.2249755859375,-1.396682739257812,0.09503173828125,0.3826387243648408,-1.158376803540245,-6.464516750009774
5.224048666656017,-0.093780517578125,-2.711044311523438,0.7645721435546875,0.1050169638973126,-2.412551506232275,-7.587059389502457
5.283414666657336,-3.766250610351562,-1.37200927734375,0.527313232421875,-2.377770888711949,0.4709819029932764,-1.63180455367865
5.342785666696727,-1.332931518554688,-1.235183715820312,0.297027587890625,1.784358943033877,0.4482686010043175,2.061602534626614
5.4021526667056605,2.306121826171875,-1.397140502929688,-1.474105834960938,-0.8724435836266882,2.087594986865787,-9.426810485313329
5.461520666722208,-0.386444091796875,-0.3221893310546875,1.41046142578125,2.80914546102524,-0.09793668382322795,4.467448467550178
5.520888666738756,0.36358642578125,-1.065673828125,0.2410736083984375,-0.6394963504452392,0.7653291140548292,-0.2997329217340201
5.580257666646503,0.488983154296875,-0.882781982421875,-0.0259246826171875,-0.7253737082203704,0.7308188073851464,0.7057515373086666
5.639621666749008,-0.0101165771484375,-0.8798065185546875,0.099090576171875,-0.08451009087148446,0.8075282331076797,1.557924736614326
5.698982666712254,0.039093017578125,-0.929290771484375,0.2911376953125,-0.04013490289193015,0.7090996634311142,1.3735647469925
5.758354666642845,0.1051788330078125,-1.151702880859375,0.2897796630859375,-0.07899734741502044,0.8317126652827983,1.409500377477593
5.817720666644163,0.2099456787109375,-1.4940185546875,0.1800689697265625,-0.2367731304034568,0.6341609735173744,2.09165044857376
5.8770846667466685,1.130157470703125,-2.285125732421875,0.7029571533203125,-0.4227778883145151,1.071215003171368,3.165432739035964
5.9364366667578,0.4613800048828125,-2.139236450195312,0.1104583740234375,-0.5969001540738579,2.891588938890823,3.636648201256841
5.9957926666829735,0.0869293212890625,-0.0186767578125,0.1492156982421875,0.6035889494677008,-0.7568778386515718,5.749570382721499
6.055174666689709,0.636871337890625,0.1420440673828125,0.05914306640625,-0.2015070186164095,-0.4462360764603691,-3.229112116493067
6.114558666711673,0.171173095703125,-0.6750030517578125,0.1302337646484375,-0.4675578767797615,-1.16241282417226,-5.517284146122608
6.173905666684732,0.131072998046875,-1.516754150390625,0.5564727783203125,0.2587697757430753,-1.688704321948738,-6.282850281514454
6.233278666739352,-0.4440460205078125,-1.822158813476562,0.967315673828125,0.1478720195266497,-2.189231866707571,-6.212360135885583
6.292637666687369,-2.2274169921875,-2.056869506835938,0.6794586181640625,-1.184229972454407,2.104880500237055,-1.724951808597479
6.3520126667572185,-1.333541870117188,-1.658401489257812,-0.2664031982421875,-0.5255652537472134,-0.5950713613533004,0.1726000028802535
6.4113986666779965,1.182418823242188,-1.081680297851562,0.681396484375,1.438971983364846,1.057154311564077,0.01032720607510927
6.470767666702159,-0.662109375,-0.700103759765625,0.5207672119140625,-0.879259678120637,0.2892706933916438,3.982864469289322
6.5301396667491645,0.243499755859375,-1.0302734375,0.13446044921875,-1.031310730029839,1.336623773195902,0.50279948748478
6.589504666742869,-0.086761474609375,-0.73187255859375,0.485076904296875,0.07367049260264395,0.2116997350564698,1.392962147108201
6.6488706667441875,0.1774749755859375,-1.0069580078125,0.236419677734375,0.05751575743022329,0.1026334347216917,0.8217694870368785
6.70823866664432,0.0208892822265625,-0.9897308349609375,0.212310791015625,-0.03412148515053123,0.3606029305571982,1.131189390919953
6.767606666660868,-0.0159912109375,-1.013320922851562,0.3207855224609375,0.01265427623562051,0.3594375312641795,1.257000316608604
6.826976666692644,0.174041748046875,-1.23931884765625,0.239471435546875,-0.169696092027631,1.038015504390223,1.521233301011868
6.88632966671139,0.134521484375,-1.502456665039062,0.28314208984375,-0.1829596995206617,1.048865755303423,2.51452634121639
6.945719666662626,1.586151123046875,-2.3173828125,1.069091796875,-0.4744133860578434,1.409001301089313,3.017785490305318
7.005088666686788,0.637451171875,-2.022705078125,0.7999114990234375,-1.068182195321986,1.510375326931506,5.172705722160526
7.064442666713148,0.2921600341796875,-0.024383544921875,0.025604248046875,-0.6644997046555572,-1.705415391472876,-0.2490364545910537
7.123827666742727,0.6699981689453125,-0.1837921142578125,0.124267578125,0.503436515617527,-1.264041181898556,-4.290990076882617
7.183198666665703,0.113677978515625,-0.888702392578125,0.064544677734375,0.3225817786224639,-1.095619678768637,-5.140323281201816
7.242570666712709,0.4232330322265625,-1.440109252929688,0.14056396484375,-0.1225501512499583,-1.348596280192462,-7.128841751297822
7.301943666650914,0.189422607421875,-2.617462158203125,0.605865478515625,0.4829722531691401,-1.034652997197888,-5.889182874443377
7.361309666652232,-2.581085205078125,-0.903228759765625,0.97314453125,-0.4505386795175011,-0.02942899530981161,-1.94088996452881
7.420658666756935,-1.136520385742188,-1.565292358398438,-0.1799468994140625,1.456411427447121,0.1413856243756527,1.48178762421005
7.480036666733213,0.2813720703125,0.2315826416015625,1.450241088867188,-1.059480582776261,-0.8039031382318639,7.211727313904357
7.539421666646376,-0.6146087646484375,-0.7171783447265625,0.162261962890625,0.6529213455003287,1.203370910157133,3.703822711328563
7.598793666693382,0.182647705078125,-1.016326904296875,0.283050537109375,-0.1293651804794711,-0.2183909272952939,-0.8407780656334281
7.658172666677274,0.04302978515625,-0.8825225830078125,0.176513671875,0.2108376698116111,-0.06174618882181416,-0.5492247768714773
7.717533666756935,0.192291259765625,-0.89349365234375,0.2506561279296875,0.04616003854212542,-0.02048210562769041,-0.8684610925325837
7.776920666685328,0.5351715087890625,-1.020721435546875,0.2060394287109375,-0.2837715320567392,0.03201359314773351,-0.6890572456993959
7.836292666732334,0.10638427734375,-0.953521728515625,0.22576904296875,0.06617103097298081,0.09561813577820497,0.508476281664393
7.8956636666553095,0.3470458984375,-0.99853515625,0.3343658447265625,-0.01907941868154568,0.2790918253892519,0.1983671516912061
7.955034666694701,0.0162506103515625,-0.9064178466796875,0.1010284423828125,-0.2224229531856738,0.1054119106869714,0.6787774438916899
8.014402666711248,0.134521484375,-0.96441650390625,0.2623291015625,-0.06472759766215787,0.05363792856695891,0.03668451138362349
8.073772666743025,0.1575164794921875,-0.944091796875,0.172271728515625,-0.1790698864324919,0.1801769624976379,-0.1118591573699442
8.133102250052616,0.1613006591796875,-0.9457550048828125,0.2315216064453125,-0.07968550824069692,0.04427079206482321,0.05383526880373379
8.192493250011466,0.16748046875,-1.0247802734375,0.1599273681640625,-0.1157005009262745,0.09499895082476155,0.1321354006453715
8.251868250081316,0.0882415771484375,-0.9567108154296875,0.2247467041015625,-0.03462322469990216,0.1424309151035088,0.2382399995318725
8.311244250042364,0.1362457275390625,-1.005157470703125,0.1645355224609375,-0.0722638109148641,0.04250591521042769,0.09756011284509075
8.370601250091568,0.1087188720703125,-0.9199676513671875,0.1938629150390625,-0.01602956660118694,-0.001219195147038275,0.09806877661329588
8.42995925003197,0.0211029052734375,-0.9544830322265625,0.1734466552734375,0.0176045600698598,-0.08651305432733306,0.1970883017357501
8.489435250055976,0.096649169921875,-0.94195556640625,0.1766357421875,0.00325171969098675,0.01388465665923712,0.009441438696548916
8.548811250017025,0.05511474609375,-0.93707275390625,0.179718017578125,0.005749764793481075,0.09797982703288724,0.02876693346281791
8.608186250086874,0.0757904052734375,-0.959564208984375,0.18365478515625,0.001483913359392152,0.08206664057133677,-0.09150621505512263
8.667560250032693,0.107421875,-0.953277587890625,0.211090087890625,0.02582200992940829,0.04222069065768021,-0.1443502553011289
8.726929250056855,0.12725830078125,-0.9751434326171875,0.202880859375,-0.005047222897918173,0.05363579803808685,-0.06454810060468653
8.786279250052758,0.10321044921875,-0.9633636474609375,0.2118988037109375,0.009757289601832314,0.03588556305659972,-0.02384115071060736
8.845651249983348,0.1182708740234375,-0.9862060546875,0.200897216796875,-0.01694516138395618,0.01909859344139425,-0.008745821019820217
8.905023250030354,0.122344970703125,-0.960418701171875,0.2093353271484375,-0.01902455756309004,0.03083727489424552,-0.003546797939767529
8.96439525007736,0.08380126953125,-0.96539306640625,0.208709716796875,-0.01481569777632882,0.02138465092111827,0.01041615565551792
9.023782250005752,0.102386474609375,-0.9664306640625,0.2021331787109375,-0.0455677515156918,0.04565004319337525,-0.01971112049211247
9.083151250029914,0.0948028564453125,-0.9583892822265625,0.2022857666015625,-0.04556402309016569,0.04902346934617861,0.001569667146492703
9.142519250046462,0.1052093505859375,-0.9742279052734375,0.174468994140625,-0.04465854831953874,0.01512808657219511,0.0136689406109407
9.20188725006301,0.10699462890625,-0.9681854248046875,0.18841552734375,-0.01502129381248293,-0.02086639977298885,0.03859559578186435
9.261255250079557,0.1006317138671875,-0.9622802734375,0.180419921875,-0.008609999804226177,-0.02014015574372424,0.00234997334588592
9.320620250073262,0.0823974609375,-0.9636383056640625,0.1904449462890625,0.01796248892036644,-0.03088068442001381,-0.001782720033699042
9.379989249981008,0.0828857421875,-0.95208740234375,0.1848907470703125,0.01057381479205061,-0.01823146819046445,-0.01578242525202758
9.43933125003241,0.08489990234375,-0.9545440673828125,0.1901702880859375,0.01055464003220204,-0.02362703255896498,-0.02531600932229324
9.498718250077218,0.100982666015625,-0.96575927734375,0.18994140625,0.01266013519001868,-0.03123754800608443,-0.04441726592477756
9.558075250010006,0.1000518798828125,-0.96368408203125,0.1845245361328125,0.01263510147577194,-0.03653058067261691,-0.0422270822442964
9.617457250016741,0.104339599609375,-0.9689178466796875,0.1888580322265625,0.01368332168082713,-0.03968349708716172,-0.03792820761269049
9.676824250025675,0.1027984619140625,-0.957977294921875,0.205108642578125,-9.05474770626941e-05,-0.02477858341431525,-0.03916497962292329
9.736197250080295,0.0931243896484375,-0.9541168212890625,0.1937255859375,-0.02978692416031826,-0.0003579288505066496,-0.05117317297809058
9.795565249980427,0.1115570068359375,-0.9670562744140625,0.1844482421875,-0.03829519121090341,-0.0005001416527168809,-0.0703617812643295
9.85493224998936,0.1316070556640625,-0.974853515625,0.1830596923828125,-0.01925412204905488,-0.02474902232621537,-0.04237195820759671
9.914293250069022,0.111358642578125,-0.960693359375,0.18902587890625,0.02108904004011947,-0.04575364015977933,-0.0005512743456464023
9.973658250062726,0.093597412109375,-0.9594879150390625,0.199493408203125,0.01378878285999426,-0.01287345439333403,-0.009444634489857011
10.033021250041202,0.1074981689453125,-0.960845947265625,0.1890411376953125,-0.009476059790719945,0.01650414190743905,-0.05987691605268754
10.092378250090405,0.1309356689453125,-0.960174560546875,0.1811370849609375,-0.01673317376118587,0.05436044417069741,-0.1071975601978695
10.151745249982923,0.1308135986328125,-0.9543304443359375,0.1958465576171875,-0.007250189751631718,0.04232002656634017,-0.02285418321062399
10.211108250077814,0.15228271484375,-0.9712371826171875,0.192108154296875,-0.01471822608043192,0.0426033869063246,0.00698440627484181
10.27047125005629,0.0878448486328125,-0.9436187744140625,0.1918792724609375,0.004188619762476625,-0.004513525415466293,0.09278506501057868
10.329838250065222,0.131500244140625,-0.973724365234375,0.1832122802734375,-0.008925318077291558,-0.08568800702162652,0.03931358401174971
10.389210249995813,0.0748138427734375,-0.9412689208984375,0.2013092041015625,-0.02843137516546793,0.0679079446359305,-0.01994867446134754
10.44857825001236,0.1218719482421875,-0.9548492431640625,0.1640167236328125,-0.04326305190833722,0.07696375760663593,-0.08294361951829986
10.50794425001368,0.10504150390625,-0.967254638671875,0.17108154296875,0.03963795703252137,0.04148033187463818,-0.1027655275117596
10.567302250070497,0.151458740234375,-0.9481353759765625,0.1916046142578125,0.0530293962578758,0.1774022149578843,-0.1063906223875755
10.62667925003916,0.1534271240234375,-0.9752960205078125,0.182342529296875,0.05090366107577456,-0.04931908022717741,-0.03354091603289396
10.68603525008075,0.10943603515625,-0.9470977783203125,0.226409912109375,0.0997731997109466,-0.06247482969605984,0.05829446573296246
10.745392250013538,0.13629150390625,-0.955291748046875,0.1976318359375,0.02737516547714251,-0.07034633493000704,-0.01626552267376796
10.804765250068158,0.1484832763671875,-0.9735107421875,0.187042236328125,0.04833637378493817,-0.1413723085702023,0.009043562429691078
10.864131250069477,0.1064453125,-0.9672393798828125,0.2172698974609375,0.0863263667349185,-0.2020122202751976,0.1344406328849441
10.923486249987036,0.1013641357421875,-0.959259033203125,0.2023162841796875,0.0387149053986999,-0.1349319861060637,0.1347442332492131
10.98285124998074,0.0968780517578125,-0.962646484375,0.1956329345703125,0.04944797722393725,-0.1146863691831723,0.1451848899867597
11.042218249989673,0.1031646728515625,-0.9700469970703125,0.22705078125,0.0435176501085488,-0.2347232953124228,0.2669531371406708
11.101587250013836,0.0793609619140625,-0.9558868408203125,0.201568603515625,0.05643877508539525,-0.2109244888631477,0.1984790044569894
11.160957250045612,0.0567626953125,-0.9519195556640625,0.2250213623046875,0.06316805052780747,-0.1435507743418871,0.1295212417193497
11.2203142499784,0.08001708984375,-0.967376708984375,0.1943511962890625,0.103987385819888,-0.0548272963097883,0.2053062842275166
11.279673250042833,0.06292724609375,-0.956573486328125,0.21624755859375,0.2046436897483049,-0.1702918411634818,0.157595753298747
11.338991250027902,0.0878448486328125,-0.9678192138671875,0.2331085205078125,0.272607028134909,-0.1925721131591937,0.3060334282409296
11.39837825007271,-0.031280517578125,-0.9613189697265625,0.3636474609375,0.2917961690533659,-0.1804406154455557,0.3634671603095784
11.457744250074029,-0.0370025634765625,-0.93511962890625,0.2955169677734375,0.02448350516553447,0.01721307538961815,0.1543770568052772
11.51710625004489,0.0090484619140625,-0.9426422119140625,0.3021697998046875,0.008899219098608782,0.3059298312745254,-0.1248836129970857
11.576465249992907,0.003936767578125,-0.954376220703125,0.2591552734375,-0.05270608850154019,0.3413306990127308,-0.107182646495765
11.635831249994226,0.129241943359375,-0.973052978515625,0.2744903564453125,-0.05528562633339094,0.2460531815379469,-0.06882620257978982
11.695195249980316,0.0418853759765625,-0.959716796875,0.234832763671875,0.04599705308341257,0.3488719722715081,0.5461770553199906
11.75455925008282,0.0395660400390625,-0.9857177734375,0.348876953125,0.11413669273418,0.4106194926738673,1.069950534285799
11.813926249975339,-0.0950164794921875,-1.08038330078125,0.237640380859375,0.07500260577990159,0.4875523576118583,1.227902618538398
11.873288250062615,-0.1247711181640625,-1.366241455078125,0.285614013671875,0.02710565357482649,0.7255412210529364,1.211397943998741
11.932653250056319,0.36517333984375,-1.433273315429688,0.3909149169921875,-0.3711919253674623,1.246934100320322,1.772518528827385
11.992021250072867,0.7120361328125,-1.521713256835938,0.385101318359375,-0.3635395982912286,1.066050867501596,1.866185100158779
12.05137925001327,-0.107177734375,-0.4315032958984375,0.6914520263671875,1.51002245808707,0.2212200033212851,5.405576256302581
12.110732250032015,1.094039916992188,0.120513916015625,0.4599456787109375,-0.197725862500715,2.080615906913125,-2.945744852289802
12.17010425007902,0.4086151123046875,-0.9085845947265625,0.0889892578125,-0.08124878380057343,3.562392612162706,-3.188008888228784
12.229446250014007,0.261993408203125,-1.252517700195312,0.1190185546875,0.7623506346916845,-1.50387508334284,-4.655958727414783
12.288833250058815,0.0164337158203125,-1.676071166992188,0.4151153564453125,0.5295493427379719,-1.26702765074497,-5.352581481138876
12.348190249991603,-0.3922882080078125,-1.6021728515625,0.2764434814453125,0.3517668283764243,-0.5044631642177525,-4.95923312076639
12.407543250010349,-0.5782623291015625,-1.570022583007812,0.254302978515625,-0.2380748835442875,-0.6380020507575958,-4.152214883007461
12.466918250080198,-2.251373291015625,-1.201766967773438,1.046524047851562,0.8813188342754863,-1.957488116022729,1.952352742492729
12.526280250051059,0.102996826171875,-3.071395874023438,-0.9693603515625,1.161528654690353,2.572822671162115,-0.01505112121669182
12.585653249989264,-0.45947265625,-1.744186401367188,0.5604705810546875,3.030341229580605,1.354040314092802,3.283306379411744
12.64502525003627,-0.0627899169921875,-0.75372314453125,0.0235443115234375,-0.8574201592853332,0.5381380372534774,1.103264548993818
12.70439625007566,0.292236328125,-1.108810424804688,0.103851318359375,-0.06797186050209239,-0.1320208847184981,0.5524951386900946
12.763747250079177,0.006439208984375,-0.92608642578125,0.2301788330078125,0.3945142922977222,0.2227856757261426,0.8269967396244859
12.823109250050038,0.152313232421875,-0.97021484375,0.245513916015625,0.01838486626925301,0.1577321071465591,0.7912981304764098
12.8824782500742,0.0494537353515625,-1.015518188476562,0.2608642578125,0.001529187097923499,0.2612316018547445,1.322032579899467
12.941848249989562,-0.04083251953125,-1.098678588867188,0.370880126953125,0.02451919152414153,0.4174771324808214,1.458886569364241
13.001215249998495,0.094696044921875,-1.499664306640625,0.1473846435546875,-0.08739322906760424,1.121600945731231,1.63120321190451
13.060583250015043,0.51495361328125,-1.870941162109375,0.2723236083984375,-0.3028488202094128,1.419743427662256,2.847203098266908
13.11993225000333,1.025421142578125,-2.29913330078125,0.4432220458984375,-1.148489285361108,2.150084463947842,3.456972711992465
13.179335625027306,-0.249420166015625,0.1761474609375,0.376251220703125,1.343086466213197,0.3326634412450679,7.886750233291254
13.238695624982938,0.5217742919921875,-0.0024871826171875,-0.0843048095703125,-0.00505521238118841,0.3864568984196874,-3.192373276623206
13.298069625045173,0.3941497802734375,-0.553070068359375,0.0656585693359375,0.403551995773015,-1.084139590257632,-5.136148509877008
13.357435625046492,-0.064178466796875,-1.030105590820312,-0.0128021240234375,0.3758322172508163,-0.941571522357984,-5.85188743390569
13.41680162504781,-0.0411529541015625,-2.197311401367188,0.2744903564453125,0.2347517911360867,-0.7271785324911171,-7.019347480975868
13.476172625087202,-1.856338500976562,-1.983291625976562,0.7402191162109375,-0.1935974301788742,-1.176354206162716,-2.278797702592462
13.535537625080906,-2.0123291015625,-0.7906036376953125,0.1573486328125,1.146320939601565,-2.029610246767601,1.571679963644585
13.59490262507461,1.689041137695312,-3.480911254882812,-3.861495971679688,0.5054999328301204,-2.610534097462073,2.350567230809007
13.654258624999784,-0.357757568359375,-0.2590789794921875,0.3062896728515625,-0.1623793232487473,1.152143142376696,6.67786844389042
13.713614625041373,-0.60382080078125,-0.9214935302734375,-0.1086578369140625,-1.455668405502989,0.5290513316141271,4.718618646806603
13.77298262505792,0.19744873046875,-1.166213989257812,0.48968505859375,0.8046363064799626,-0.408354207850646,-0.8595640039628469
13.832328625023365,-0.002227783203125,-0.978363037109375,0.35601806640625,0.3411253692926857,0.6021391245702618,0.329274835074051
13.891714625060558,0.0041351318359375,-0.92041015625,0.329925537109375,0.2197896194998035,0.4381190277739165,0.8490551703013943
13.951075625023805,-0.135498046875,-0.96771240234375,0.139892578125,0.04299087684493113,0.4636523510411603,1.156736029992647
14.010440625017509,-0.15472412109375,-1.133132934570312,0.46209716796875,0.3671625626381724,0.8045042136898948,1.124347730079539
14.069815625087358,0.42132568359375,-1.7437744140625,0.158660888671875,-0.598317488405998,1.65526913341112,1.856377210496235
14.129171625012532,2.085342407226562,-2.513031005859375,0.6050567626953125,-0.2314452103266443,2.207242825159777,3.383223389821555
14.188526625046507,0.687896728515625,-0.8901214599609375,0.8842926025390625,0.8789848398961408,-0.4076593891222443,7.386266630690407
14.247915624990128,0.2479095458984375,-0.2635955810546875,0.22723388671875,-0.3583581520743704,-0.553080235181585,-1.528961794495278
14.307263625087216,0.4052581787109375,-0.641937255859375,-0.04107666015625,-0.8932157074970882,0.7125330107084443,-4.116257414601429
14.366633625002578,0.2012939453125,-1.389633178710938,0.1827392578125,0.4955359819276979,-1.099736393181681,-6.03768499788394
14.42599262506701,-0.14703369140625,-1.923721313476562,0.4793701171875,0.2856357448197946,-1.480210766528614,-6.973709422007397
14.485357625060715,-0.693817138671875,-2.256317138671875,0.3944244384765625,0.3293025319493879,-0.5014135784535028,-4.739701827892325
14.544736625044607,-3.7945556640625,-0.5226593017578125,0.5012054443359375,0.6506272985373344,-1.305948951128151,0.8088073493792448
14.604097625007853,1.186264038085938,-2.03399658203125,-0.1443634033203125,0.4240791088231278,-2.333883591844097,1.640785265506615
14.663459624978714,-0.4314422607421875,-0.8357696533203125,-0.0889434814453125,-1.004963012101249,3.052288340123948,5.471230634024086
14.72282162506599,-0.3463592529296875,-0.8599853515625,0.0829925537109375,-1.02985824197131,0.9249414129309842,2.267143177030057
14.782179625006393,0.335906982421875,-1.100387573242188,0.0858917236328125,-0.3702390463294319,-0.2305836777140036,-0.495404421769848
14.841541624977253,0.1180572509765625,-0.976959228515625,0.1858367919921875,0.0596031430926274,-0.1450772982787205,0.8042512133863372
14.900904625072144,0.0868377685546875,-0.9779052734375,0.2702789306640625,0.2206540815896432,-0.06901555333329445,0.9313953175166823
14.960266625043005,0.0959625244140625,-1.048492431640625,0.25067138671875,0.09872231634480133,0.3244198924068366,1.291535656992534
15.019611625000834,0.0385284423828125,-1.339752197265625,0.1804656982421875,0.1350563557289704,0.9059754449118759,1.956653747653207
15.078970625065267,0.358795166015625,-1.98309326171875,0.538604736328125,0.05482436683258921,1.075288308058645,2.094381253955527
15.138334625051357,2.204727172851562,-2.552627563476562,0.8484954833984375,-0.1469500331572643,2.981171552690581,3.22230081568908
15.197698625037447,0.501678466796875,-0.5635986328125,0.6555633544921875,1.400752425928901,1.438749609413825,6.94297760829232
15.257048625033349,0.69439697265625,-0.0706787109375,-0.001800537109375,-0.7747433885082593,-0.254224292394528,-2.852037800909838
15.316411625011824,0.1655120849609375,-0.67138671875,0.1282806396484375,0.05245521872685472,-1.269387211470781,-3.234834717043429
15.375771625083871,0.1741943359375,-0.86236572265625,0.2247161865234375,-0.5500674010403784,-1.788550758589662,-5.829119004482166
15.435148625052534,0.0353851318359375,-1.800125122070312,0.6002197265625,0.02385659704492982,-1.376507273680929,-6.382335327195454
15.494513625046238,-1.131912231445312,-2.086639404296875,0.98248291015625,0.6477138003047878,-0.8068166364644106,-5.414096241261962
15.553877625032328,-3.549880981445312,-0.4979248046875,-0.81591796875,-1.028590044660214,0.1814965588177722,-0.3744819945781461
15.613245625048876,1.480880737304688,-4.0584716796875,-1.947708129882812,-2.082623397742827,-3.181784281812942,1.014758118590561
15.672606625012122,-0.621063232421875,-1.710357666015625,0.433074951171875,5.240426712887933,0.2044032063018707,4.157203516361397
15.73196462506894,-0.1170654296875,-0.5596923828125,-0.3306427001953125,-1.518214874232372,0.4955218671739205,1.956146149149438
15.79132862505503,0.14727783203125,-1.01971435546875,0.1801300048828125,-0.3086278797748848,0.09009873441901575,0.4774509875971878
15.850693625048734,0.313812255859375,-1.0703125,0.0678863525390625,-0.2797304514186529,0.3197867910584258,0.1455673199192951
15.910064625088125,0.0365142822265625,-0.9960174560546875,0.405487060546875,0.292436392979421,0.2688477099401532,0.9564806970885746
15.969431624980643,0.0527191162109375,-0.945465087890625,0.17510986328125,0.019224827277064,0.6367655450634719,1.262470982119845
16.028797624981962,0.2196807861328125,-1.243026733398438,0.30462646484375,-0.1684135136466489,1.107558363619353,1.698471997878821
16.088162624975666,0.2191009521484375,-1.664474487304688,0.1009674072265625,-0.2344167654709547,1.162598180184129,2.13805070424621
16.14753162499983,1.651077270507812,-2.063888549804688,1.14398193359375,-0.5232285962067779,1.708618641632023,3.244691608870031
16.206894624978304,0.632537841796875,-2.272048950195312,0.7178802490234375,0.5701060903465707,-0.04553392936984779,6.653051510956407
16.26626462501008,0.4419708251953125,-0.302642822265625,0.1318359375,-0.5142750486219314,-0.7874573195522976,-2.627523733636234
16.325633625034243,0.8149261474609375,-0.5149688720703125,0.0567474365234375,0.7243670333283204,-0.3395466473984867,-3.467552385738914
16.384985625045374,0.1017913818359375,-0.8224945068359375,0.0921630859375,0.0950343708672596,-1.316623167093298,-5.584603532157631
16.44436362502165,0.2806549072265625,-1.650726318359375,0.249847412109375,-0.08169299907039865,-1.726467946206061,-7.073490611201614
16.503730625030585,-0.980010986328125,-2.5086669921875,1.329925537109375,0.3731887635528037,-2.266471794119248,-6.09841732127876
16.563084625056945,-3.61004638671875,-0.60321044921875,-0.10955810546875,-2.22494858535106,-1.697107127820156,-1.050348070766161
16.622441624989733,0.608917236328125,-4.308990478515625,-3.012588500976562,1.392931254439556,0.00298620253030585,1.549370663192991
16.68180362507701,-0.220916748046875,-1.159942626953125,0.4258270263671875,3.089395228856458,-1.916309520299597,2.682005617952639
16.74117762502283,-0.1901397705078125,-0.684295654296875,-0.261810302734375,-1.186937874650799,0.4300872002423466,1.148004590042713
16.800540625001304,0.27545166015625,-1.118698120117188,0.2653045654296875,-0.0962008354247143,0.1968329045872114,0.363387265476876
16.85990262508858,0.33319091796875,-1.044143676757812,0.1401824951171875,0.1157793304945408,0.9317710895464923,0.4044095336440205
16.919269624981098,-0.015167236328125,-0.9962158203125,0.3468475341796875,0.2768622269246376,-0.09738301263260048,1.108673961799987
16.978634625091217,0.0641021728515625,-0.99517822265625,0.26416015625,0.07468249381687406,0.4278195185741441,1.322360681345765
17.03800062497612,0.0861968994140625,-1.324081420898438,0.330810546875,0.03969122025432295,0.6967548465141609,1.325772723334374
17.097343625035137,0.4117279052734375,-1.7230224609375,0.116424560546875,-0.4402109408101738,1.306884519619096,1.922116809372624
17.156706625013612,1.852859497070312,-1.8489990234375,0.9617462158203125,-0.313443940290184,1.461272229068734,3.097226520357945
17.216154625057243,0.6287689208984375,-1.955795288085938,0.917144775390625,-1.138493376525604,3.49850231234727,4.086970632093827
17.275517625035718,0.303436279296875,-0.295135498046875,0.040252685546875,-0.8150721695275472,-1.606330618903715,3.375992374829771
17.334885625052266,0.53887939453125,-0.3453521728515625,0.046112060546875,0.7272954452629715,-0.6291947107165947,-3.4206535863104
17.39425062504597,0.1409149169921875,-0.773834228515625,0.05255126953125,0.2981872230373381,-0.9653801825032924,-4.227229206696158
17.453605625079945,0.2537384033203125,-1.388351440429688,0.3337554931640625,-0.09064281822971894,-1.499097904979456,-6.346927535238415
17.512972625088878,0.0975799560546875,-2.5098876953125,0.6342926025390625,-0.3753144987349049,-1.459645303958804,-7.27909250631013
17.572321625077166,-2.1878662109375,-1.507614135742188,0.9556121826171875,-0.4157913515108012,-0.3135810930863231,-1.61903469625172
17.631699625053443,-1.797943115234375,-0.806396484375,0.120574951171875,-0.6073386802825325,-2.842506347368444,-1.232015604525917
17.691064625047147,1.118850708007812,-5.50091552734375,0.669677734375,-0.2695342728691756,-0.9082564423855287,-3.357284200804183
17.75042962504085,-0.6646728515625,-0.54864501953125,0.064483642578125,0.3345468287679719,0.432419863041147,7.162498248522025
17.809796625049785,-0.14044189453125,-0.8394775390625,0.278167724609375,0.1816755232430255,-1.257349989659732,2.074341499384899
17.869160625035875,0.33953857421875,-0.942474365234375,0.100616455078125,-0.2471701112991262,0.5412627241604674,-1.124216169921689
17.928522625006735,0.08203125,-0.8985748291015625,0.3586883544921875,0.305645139353996,0.01968661941008374,0.04789109325067693
17.98788762500044,0.0981903076171875,-0.9040985107421875,0.2061309814453125,-0.06863711814239419,-0.1252537923886067,-0.1318877266639941
18.04725162498653,0.1841888427734375,-0.982879638671875,0.232086181640625,-0.2091992931089944,0.1342323736876999,0.09115467779123217
18.106609625043347,-0.0049591064453125,-0.9303131103515625,0.2339324951171875,-0.1527690401390874,0.3458338380999457,-0.1126085709006925
18.165953500079922,0.3625640869140625,-1.003189086914062,0.24908447265625,-0.3610452816142604,0.3702124147185311,-0.6768359994570222
18.22530050005298,0.215118408203125,-0.946929931640625,0.1025238037109375,-0.3888257802093129,0.1900415774914004,-0.02785986079553693
18.284675500006415,0.166473388671875,-0.944305419921875,0.2194061279296875,-0.05719990652493989,0.1107680602713387,0.3760798912321937
18.344029500032775,0.1196746826171875,-1.036148071289062,0.2169189453125,-0.0310082498362286,0.01384790503619402,0.357975189509617
18.403389499988407,0.127471923828125,-0.9556121826171875,0.149261474609375,-0.1026414242049619,0.173694828404385,0.2666426125575675
18.462760500027798,0.057830810546875,-0.9783935546875,0.25189208984375,-0.04484337169919025,-0.009146893079986151,0.1535695863627652
18.52212249999866,0.1649932861328125,-1.012954711914062,0.139984130859375,-0.1567291606800352,0.1930445579365737,0.03083993805533559
18.581489500007592,0.03594970703125,-0.9403076171875,0.2249755859375,0.0002194444738225292,0.06607941823148208,0.1452994059136332
18.640861500054598,0.0835113525390625,-0.9689788818359375,0.1406097412109375,-0.07942824687939526,0.09364127130103915,-0.01066329700467727
18.700203499989584,0.1155242919921875,-0.9703216552734375,0.1859893798828125,-0.02821299595608143,0.1122277388648112,-0.05454633281478494
18.759559500031173,0.114990234375,-0.9920806884765625,0.1587982177734375,-0.01558854712466981,0.09193072293288125,0.0586689061822276
18.818944500060752,0.0801849365234375,-0.9651641845703125,0.145233154296875,-0.01341594030738317,0.106070244108439,0.0968863330893007
18.878305500024,0.0427093505859375,-0.913177490234375,0.1476593017578125,0.01495897584297508,0.0231031887725464,0.09568311690880291
18.93767650006339,0.067474365234375,-0.978118896484375,0.1432342529296875,0.01775476235534026,-0.07309445085885981,0.03065990836564624
18.99703850003425,0.0691680908203125,-0.96429443359375,0.1652984619140625,0.05040618258414776,-0.1517969863412085,0.03260934228358424
19.05640250002034,0.064544677734375,-0.9689788818359375,0.183990478515625,0.05591732814395773,-0.1115374475102626,0.02150875422791596
19.11577550007496,0.0803070068359375,-0.97235107421875,0.1766510009765625,0.03376621946111466,-0.06811966594259179,-0.002430400810806313
19.175143500091508,0.0730133056640625,-0.966278076171875,0.1710357666015625,0.03168682328198079,-0.05638098448974053,0.002768622269246376
19.234514500014484,0.078765869140625,-0.978668212890625,0.1831207275390625,0.02329733321601318,-0.03109240572667511,-0.02416179530585289
19.29387749999296,0.0833892822265625,-0.9631195068359375,0.177886962890625,0.008635566150690938,0.01969274468059093,-0.05350823262187206
19.353244500001892,0.081146240234375,-0.96893310546875,0.185760498046875,0.02143578361404779,0.0249753910188721,-0.0524946335109879
19.412611500010826,0.071014404296875,-0.9607086181640625,0.1706390380859375,0.01728071968130616,0.05182618007737801,-0.02081579971227734
19.471979500027373,0.08978271484375,-0.9720001220703125,0.18798828125,0.04173599533928579,0.04546255665263367,-0.01114106810423749
19.531345500028692,0.0807037353515625,-0.960662841796875,0.197021484375,0.03761715039736924,0.07970308510389144,0.01512675499165007
19.590717500075698,0.0654144287109375,-0.9606781005859375,0.1969146728515625,0.03648903535961168,0.06591456856000619,0.01741014931028401
19.650083500077017,0.108184814453125,-0.9816436767578125,0.19012451171875,0.01092002573376091,0.05479933311834247,-0.04749907593821726
19.709446500055492,0.0856170654296875,-0.9616241455078125,0.1781158447265625,0.02570163504813671,0.03171878121506174,-0.008865130636655769
19.76881250005681,0.0783233642578125,-0.9620513916015625,0.2051239013671875,0.05311461741275834,-0.02553465484778874,0.01416322330925941
19.82818050007336,0.076019287109375,-0.958648681640625,0.201263427734375,0.02642814539351033,-0.04374748091062264,-0.01229581475289584
19.887543500051834,0.074920654296875,-0.9715576171875,0.1890411376953125,-0.00229990591739243,-0.04171362478612912,-0.03258377593711948
19.946907500037923,0.0782012939453125,-0.953033447265625,0.20654296875,-0.001203748812715816,-0.03538941614551796,-0.03798253609892811
20.006242500036024,0.065673828125,-0.9573822021484375,0.1836090087890625,-0.02042324976759966,-0.05042828682119541,-0.06340720239369659
20.0656205000123,0.08843994140625,-0.96392822265625,0.2042083740234375,-0.02142459833746945,-0.04351072588971459,-0.1231743962094729
20.12499849998858,0.1232147216796875,-0.9629364013671875,0.1817779541015625,-0.04048111383364045,-0.02013775889874317,-0.1298365599924151
20.18436750001274,0.1036376953125,-0.947540283203125,0.18597412109375,-0.02477006129882699,-0.06607089611599383,-0.03125965224313208
20.243727500084788,0.08367919921875,-0.9636383056640625,0.202911376953125,-0.01655420933593255,-0.1307311158025727,-0.01135625152031589
20.30310450005345,0.0983734130859375,-0.965789794921875,0.1851348876953125,-0.04280818399415169,-0.05335243769810242,-0.04100149551064194
20.362473500077613,0.0885009765625,-0.9520111083984375,0.185699462890625,-0.05841590587867007,0.02172047553457726,-0.0876707304531905
20.421845500008203,0.1214447021484375,-0.984130859375,0.165924072265625,-0.06778224343247875,0.06496009162532179,-0.1275904499290423
20.481209499994293,0.152008056640625,-0.969207763671875,0.153533935546875,-0.04872626056852578,0.04388889476450585,-0.1007015776669482
20.54057750001084,0.1338653564453125,-0.966705322265625,0.1819000244140625,0.005227785219825544,-0.02355512720953284,-0.01892389007388505
20.599946500035003,0.1245269775390625,-0.9632110595703125,0.1749725341796875,0.005097290326411662,-0.04763463083770229,0.02184591042191999
20.659320499980822,0.149993896484375,-0.9793243408203125,0.17303466796875,0.006240319066273671,-0.03525332861381491,-0.01986025751315691
20.718679500045255,0.1350860595703125,-0.968353271484375,0.190643310546875,0.02231782256708203,-0.007363640414069094,0.01608016666189844
20.778058500029147,0.1400299072265625,-0.9642486572265625,0.1699371337890625,0.006370813959687554,-0.002004028720284627,0.01601358763464646
20.837420500000007,0.1058197021484375,-0.954681396484375,0.175811767578125,0.03770716524221392,-0.1267563478756294,0.09734705995788441
20.896786500001326,0.104248046875,-0.9632720947265625,0.1820831298828125,0.03134114497248851,-0.1248362087296823,0.07174129870899056
20.956158500048332,0.0814971923828125,-0.9398956298828125,0.173858642578125,0.02450960414421725,0.007586546997308726,0.02550935481743299
21.015511500067078,0.10693359375,-0.9647369384765625,0.1822662353515625,0.03713298771119283,-0.03103141933771229,-0.01243110333627187
21.074903500033543,0.1221160888671875,-0.9637603759765625,0.1837921142578125,0.02028955908087769,0.01150379064470628,-0.01397413887186378
21.134255500044674,0.103515625,-0.952239990234375,0.190399169921875,0.03093581185457845,0.01378292390559609,0.007323692997717905
21.193641500081867,0.1003570556640625,-0.9544830322265625,0.1733551025390625,0.01911510504015274,-0.01064358961261068,0.004389954740886617
21.253014500020072,0.122222900390625,-0.985595703125,0.20098876953125,0.0359116620352825,-0.06267456677781579,0.01349903093339364
21.312385500059463,0.078033447265625,-0.94610595703125,0.1947479248046875,0.007709318723561379,0.05280542441020014,-0.03362187613003237
21.371754500083625,0.102752685546875,-0.9445953369140625,0.18475341796875,-0.01673264112896785,0.05549734764005224,-0.09868290156066815
21.431099500041455,0.1324005126953125,-0.9653778076171875,0.166107177734375,-0.008560997640168719,-0.01755902001521944,-0.06696198981673435
21.490487499977462,0.137908935546875,-0.9528350830078125,0.1847381591796875,0.03180346973772626,-0.03435158226871408,-0.02945136586296828
21.549856500001624,0.1287078857421875,-0.9713897705078125,0.211029052734375,0.04967807434212009,-0.07515653649090817,0.0488178733100245
21.609243500046432,0.1183624267578125,-0.9698638916015625,0.2073211669921875,0.0445056828729682,-0.04225477911963323,0.04312296963499906
21.668615499977022,0.11663818359375,-0.9582977294921875,0.1846160888671875,0.03188496246708269,-0.008268316236369011,0.03741261962565116
21.727987500024028,0.1327056884765625,-0.96929931640625,0.1797332763671875,0.0127682595302759,-0.006766559697673328,-0.04042358955409474
21.78735650004819,0.1196136474609375,-0.9616851806640625,0.1921234130859375,0.05508429135498095,-0.06057013688443517,0.01774837076872407
21.846704500028864,0.119873046875,-0.9638214111328125,0.1996002197265625,0.1101153194881603,-0.1259392900531931,0.09417416983516401
21.906073500053026,0.1000213623046875,-0.9605560302734375,0.2201385498046875,0.1155226017654572,-0.1079328589748404,0.08971444027371732
21.96543850004673,0.1038818359375,-0.9517669677734375,0.213714599609375,0.09869408683724649,-0.06795108784558977,0.03916817541623139
22.024796499987133,0.1017913818359375,-0.953399658203125,0.2194061279296875,0.07721516001353941,-0.1082186161598059,0.04386599157913117
22.08416650001891,0.1095123291015625,-0.96685791015625,0.2165985107421875,0.08029963318806919,-0.128086330524015,0.08139312713165572
22.143533500027843,0.081268310546875,-0.9458160400390625,0.21966552734375,0.1045445191199326,-0.1685935433363382,0.1959026624184468
22.202896500006318,0.1534271240234375,-0.998382568359375,0.1903533935546875,0.1235397819110317,-0.1989181597207435,0.2580682991119484
22.262261500000022,0.0458831787109375,-0.9306793212890625,0.298736572265625,0.2557236520882427,-0.37256158911609,0.4934778910372847
22.32162750000134,0.025848388671875,-1.018142700195312,0.2508697509765625,0.2671486131646826,-0.4329074878367405,0.5218623945675672
22.380972500075586,0.045196533203125,-0.9554901123046875,0.2948150634765625,0.06045162621592665,-0.02352503348921495,0.2465107126132225
22.44036850007251,-0.0428619384765625,-0.9397735595703125,0.2846221923828125,-0.03795643712024534,0.1024629924119266,0.1619345753467041
22.49973849998787,-0.012847900390625,-0.9405975341796875,0.27423095703125,-0.07123583073409351,0.5056405477356766,0.08712158663641617
22.559108500019647,-0.0194854736328125,-0.96185302734375,0.2567596435546875,0.004907140624580004,0.4273574601250154,0.3950000528805526
22.61847950005904,-0.035125732421875,-0.96197509765625,0.2972259521484375,-0.02144217520066398,0.50296593505291,0.5273911169905717
22.677853500004858,-0.0357208251953125,-0.9732208251953125,0.3329620361328125,-0.08281365725710399,0.595024756034224,0.5849713229191749
22.737226500059478,-0.1213226318359375,-0.9704437255859375,0.2814178466796875,-0.1053764906444733,0.8161451571307401,0.8351396209735122
22.796604500035755,-0.2125396728515625,-1.1326904296875,0.2468414306640625,-0.2400653301430128,0.9562484694415196,1.015799947209
22.855978499981575,-0.001251220703125,-1.521163940429688,0.2172088623046875,-0.4373746742492394,1.11484184288461,0.9809152000900516
22.91533550003078,0.7510833740234375,-1.697952270507812,0.4034576416015625,-0.4568445123465907,0.7150475674096971,2.153543377571637
22.97470650007017,0.08892822265625,-1.683975219726562,0.596099853515625,0.3581472297160361,0.1679250899027283,4.625387235997327
23.034048500005156,0.79083251953125,-0.4853057861328125,0.40576171875,-1.008982787450615,1.816504628971678,-1.351821101956439
23.093435500049964,0.477447509765625,-0.995361328125,0.137969970703125,0.06687836655850586,2.16905069828306,-1.246486156624971
23.15280962502584,0.27813720703125,-1.0980224609375,0.15716552734375,0.5526458736077932,-1.847362410206317,-3.670573145118924
23.2121716249967,0.037109375,-1.383880615234375,0.528778076171875,0.3353431139339056,-2.256209302858628,-4.937782956082456
23.271534624975175,-0.3110809326171875,-1.532302856445312,0.6008453369140625,-0.07663246036703007,-0.8550574027662149,-5.226303969627242
23.330895625054836,-0.5507659912109375,-1.53399658203125,0.1480560302734375,0.006843258737067611,0.9244535218192816,-4.965565585206381
23.39025862503331,-1.442062377929688,-1.237518310546875,0.31158447265625,0.1962265028070004,-1.485297404210666,-1.14641894392968
23.449619624996558,-1.871658325195312,-0.94708251953125,0.3704986572265625,0.03709463819149569,-1.817296653079868,0.9271475755780059
23.508984624990262,1.03790283203125,-1.936737060546875,1.102508544921875,-0.1692998136574272,3.850171402711688,-3.35643944610641
23.56834462506231,-1.031295776367188,-2.171249389648438,0.7108917236328125,0.692388860223085,0.2999201419586526,3.918461244647936
23.6277086250484,-0.0136871337890625,-0.886260986328125,-0.061248779296875,-1.080939802207902,1.119215552342848,1.867395240558111
23.687073625042103,0.262664794921875,-0.9634552001953125,0.0540008544921875,0.2094102154673287,-0.1218763714941682,-0.379083936941803
23.746439625043422,0.1980743408203125,-0.944580078125,0.2471466064453125,0.3026623989331073,0.5644572593584035,0.2593231806175937
23.805802625021897,0.105804443359375,-0.9521484375,0.2845001220703125,0.1964363599008987,0.1655844376206577,0.4139660208996609
23.865147624979727,0.0293121337890625,-0.9664154052734375,0.2635498046875,0.04973346809279374,0.238795801251372,0.59535871643492
23.924526625080034,0.1306915283203125,-1.067916870117188,0.3139495849609375,0.06178320676096626,0.545480372378826,0.5578720609309646
23.983881624997593,0.35498046875,-1.390640258789062,0.4709320068359375,0.0578688925907678,0.998808446822076,1.732820384354227
24.043240625062026,0.45208740234375,-1.940902709960938,0.149627685546875,-0.3861045622074699,1.327326411514327,2.455932536176903
24.102604625048116,1.801925659179688,-1.65802001953125,0.929901123046875,-0.8544352883355724,2.615284111582339,3.054397031075073
24.161964625003748,0.2662353515625,-1.665313720703125,1.04107666015625,1.273801667293696,-0.3128141026923803,6.582781875065795
24.221317625022493,0.3702239990234375,-0.050628662109375,-0.0880279541015625,-0.8055247370196131,-1.559895209504875,3.829558003242257
24.280664624995552,0.9416656494140625,-0.309051513671875,0.1564483642578125,0.5571072010658938,-0.1083935858434241,-3.334811382261658
24.340043624979444,0.223724365234375,-1.025650024414062,0.3913421630859375,0.1677381359942048,-2.134784869801446,-5.082031478629944
24.399395624990575,0.1816253662109375,-1.487060546875,0.3350067138671875,0.2203632643986066,-1.694133708463082,-6.1879432097473
24.458755625062622,-0.260101318359375,-2.976242065429688,0.6732025146484375,0.601745509361148,-1.363078550200313,-3.79740565940173
24.518125624977984,-5.356048583984375,-0.4481353759765625,0.659149169921875,-1.649264237785209,-0.6980547354422285,0.03784192119337193
24.577484625042416,1.722671508789062,-1.937973022460938,1.812210083007812,-1.590553786289976,-4.170715330468023,0.3575789111394132
24.63686662504915,0.206024169921875,-0.0543212890625,0.7454376220703125,4.502529223325356,-3.496397083505562,2.899421295656746
24.69621562503744,-0.684051513671875,-0.6320648193359375,-0.164306640625,-0.7468547655729495,0.0234997334588592,3.038273188571297
24.75555762508884,0.5102691650390625,-1.04376220703125,0.878753662109375,1.276533537939899,-0.6735411365563762,-1.499155695575111
24.81491062499117,0.2775726318359375,-0.994964599609375,0.0302581787109375,-0.2730688202679287,1.810215041425238,0.2474422863625323
24.874275624984875,0.135101318359375,-1.06243896484375,0.501373291015625,0.3400297448202271,0.1963532692748882,0.9445119185175405
24.933634625049308,0.3202972412109375,-1.042129516601562,0.2799072265625,0.08241151993250202,0.7012113802822995,1.121090684066372
24.992991624982096,0.027496337890625,-1.253067016601562,0.1567230224609375,0.007620369143152732,1.435258737856949,1.812187911160769
25.05235062504653,0.434906005859375,-1.731948852539062,0.27557373046875,-0.06254007714276678,1.268745922280289,2.185991332293163
25.111728625022806,2.110519409179688,-2.39013671875,0.6710052490234375,-0.4649330652093794,2.608262953684454,3.357372085120155
25.171081625041552,1.001937866210938,-2.240524291992188,1.345428466796875,1.292132737708929,0.634448062282885,6.173693167386505
25.230433625052683,0.3092193603515625,0.201416015625,-0.045867919921875,-1.046798077033086,0.4026526462728953,3.647908578977914
25.289789624977857,0.7008209228515625,0.047637939453125,0.023040771484375,0.1015079828450242,0.07078655545819715,-4.02024300045302
25.349145625019446,0.3807373046875,-1.111038208007812,0.3936614990234375,0.06344661717782976,-2.925410019470393,-5.865321483708485
25.40848362504039,0.1568756103515625,-1.8458251953125,0.5864105224609375,-0.3360573737382649,-2.490083848731643,-7.735636081453542
25.467841624980792,-0.710357666015625,-3.522994995117188,0.636505126953125,0.006554572074903021,-2.081874783160406,-7.834844691013392
25.527194624999538,-4.57574462890625,0.84381103515625,-1.88592529296875,-2.565482732881748,-1.346764025362488,5.484925140981491
25.586552625056356,-0.046478271484375,-3.480133056640625,0.01849365234375,2.637807263869466,1.577433190547483,-1.437015625228074
25.645914625027217,-0.2428436279296875,-0.4344635009765625,0.3273468017578125,0.4716271869254025,-0.5504421078057525,5.376297995910467
25.70527962502092,-0.3637237548828125,-0.7078857421875,-0.1667327880859375,0.3027811759177248,1.110840177030657,0.6562055557566143
25.76464762503747,0.5781097412109375,-1.255020141601562,0.4741973876953125,0.2381047109484964,0.5784425835068456,-0.3505561553448743
25.824008625000715,0.162139892578125,-1.022171020507812,0.1108856201171875,-0.1352901812726794,0.3176855569583532,0.8054501685090909
25.883358624996617,-0.059295654296875,-0.9629058837890625,0.4222869873046875,0.4398855025249661,-0.2956742642327393,1.209000566385452
25.942743625026196,0.01153564453125,-1.023574829101562,0.265960693359375,0.2679496920205784,0.5677585138456658,1.475462616621112
26.0021086250199,0.108306884765625,-1.378265380859375,0.19378662109375,0.106913667225667,1.023850150552091,1.818904936062167
26.06143762508873,0.4698333740234375,-1.994583129882812,0.4156646728515625,0.1425563499908515,1.193691384859132,2.29990059107025
26.12081162503455,1.797271728515625,-2.445724487304688,0.3998870849609375,-0.8552550093190988,2.936237367198219,3.307737686619912
26.180166625068523,0.32879638671875,0.3867034912109375,0.843353271484375,0.6551674555637015,0.9818281317117308,5.585449884752058
26.2395446250448,0.5105743408203125,-0.0559234619140625,-0.4550018310546875,-1.07025093885676,-1.503787465342977,-2.35980094294053
26.298907625023276,0.2780303955078125,-0.812774658203125,0.0593109130859375,0.4104660945950788,-0.754366211427518,-5.329513712408827
26.35827262501698,0.1764068603515625,-1.309722900390625,0.0160064697265625,-0.1441350718850505,-1.150030456683936,-6.906137568301036
26.41763462498784,0.3026885986328125,-2.03912353515625,0.384918212890625,-0.1807599284602562,-1.538805903148647,-7.395377304779568
26.476991625037044,-1.050933837890625,-2.599655151367188,1.298675537109375,0.6823886903298374,-1.294585242756783,-4.684952562202476
26.536349624977447,-3.418960571289062,-0.091888427734375,-0.916351318359375,-1.452144510748596,-1.527295987233433,2.718228337203243
26.595711625064723,0.097320556640625,-4.69482421875,0.8773345947265625,-3.329834466816518,-4.875852742829317,-0.5670509119440317
26.655050624976866,-0.4388885498046875,-0.698760986328125,0.5673065185546875,0.3848358322641562,0.8775501950169151,4.502453589550398
26.7144326249836,-0.0431671142578125,-0.8386688232421875,-0.3392791748046875,0.074142937380024,0.8994664128916132,0.3407924741564258
26.773787625017576,0.03759765625,-0.8509979248046875,0.3177337646484375,-0.04829376320749691,0.9260665984915427,0.5461605437212321
26.833143625059165,0.250244140625,-1.031021118164062,0.1101226806640625,-0.06889278160704179,0.5500378399522785,0.0621171671616622
26.892501624999568,0.1089019775390625,-1.0433349609375,0.3616943359375,0.0761019586778863,-0.04776352783446213,0.6390366888410915
26.951857625041157,0.0494384765625,-0.97918701171875,0.354034423828125,0.1535083336576934,0.2071734264677711,1.388785777886739
27.011218625004403,0.1369171142578125,-1.149566650390625,0.325103759765625,0.1168286159640321,0.5830197584723649,1.467762352645257
27.070579625084065,-0.0233917236328125,-1.449249267578125,0.1557464599609375,0.1136354858170271,0.8956399830373873,2.103851987424067
27.12994462507777,0.7284698486328125,-2.21636962890625,0.63714599609375,0.1766368224605956,1.211770253919134,2.435086376428198
27.18931462499313,0.63323974609375,-2.091384887695312,0.1263580322265625,-0.5233937121943628,3.110454441492369,3.418956087431584
27.248685625032522,-0.1971893310546875,-0.013885498046875,0.3446197509765625,0.5469040982975822,1.268213822694492,5.372257447904599
27.30804962501861,0.5301055908203125,-0.1210784912109375,-0.030670166015625,0.157796023012721,0.3238483780369056,-3.613702937936936
27.36740362504497,0.3165740966796875,-0.70318603515625,0.1263427734375,0.3577333744826378,-0.5601424057602572,-4.642043710719118
27.42678662505932,0.0510101318359375,-1.121047973632812,0.386627197265625,0.01917848827409662,-0.7487751710350057,-6.282672914985855
27.486142624984495,0.339447021484375,-2.05438232421875,0.55316162109375,-0.1352848549504992,-2.093470186546611,-7.508617577490827
27.545522624976,-1.963882446289062,-2.806732177734375,1.491439819335938,1.094035630552257,-2.26331435033085,-6.097049521742896
27.604883625055663,-2.488418579101562,-1.043411254882812,-0.1549530029296875,-1.984800697214255,-0.8452156909578271,3.019565547177927
27.664221625076607,1.35980224609375,-1.981842041015625,1.871597290039062,4.65741707442771,-1.828452102253992,2.090194232089705
27.7236156250583,-0.7335968017578125,-0.719573974609375,0.1563262939453125,-1.094967736933785,0.1450938098774791,3.944916021652347
27.78298762498889,0.0811920166015625,-0.993988037109375,0.214324951171875,0.4772677621141904,1.52234943182472,0.3906015760241777
27.84235562500544,-0.04656982421875,-0.805755615234375,0.3881072998046875,0.1671218805179605,0.7592927931280555,0.5022673878989822
27.90171962499153,0.0837249755859375,-0.96453857421875,0.2039947509765625,0.1789559031378365,0.3370387485999591,0.696661635876008
27.96108262508642,0.062896728515625,-0.9566802978515625,0.198760986328125,0.04461167668435335,0.546762151811481,0.8200613355137016
28.02044262504205,0.04974365234375,-1.046768188476562,0.4481964111328125,0.2297993767729753,0.5727466145673842,1.182267222731018
28.079803625005297,0.13751220703125,-1.3846435546875,0.0167999267578125,-0.07179083350526602,1.329448684587011,2.077661395999792
28.13913916668389,0.318756103515625,-2.13922119140625,0.5731048583984375,-0.1385434988603201,1.954944530865594,2.750773763620665
28.198497166740708,1.2073974609375,-2.172714233398438,0.25762939453125,-0.6271600556437742,1.562167951179149,3.228138464798534
28.257883166661486,0.1105804443359375,-0.2550048828125,0.3738250732421875,0.8639859166368146,0.8654325457409456,4.374903087037707
28.317239166703075,0.826934814453125,0.06353759765625,-0.15521240234375,-0.4638656702444756,0.5822820628504128,-1.732333025874743
28.37659616675228,0.1865081787109375,-0.81475830078125,0.0382232666015625,0.6462730301550549,-0.5689854321598653,-4.703633571984946
28.435955166700296,0.2079010009765625,-1.432373046875,0.0381927490234375,0.1414053317677193,-1.085478361337615,-6.71592022217769
28.495314166648313,0.0152587890625,-2.424301147460938,0.3786773681640625,0.3137027995481397,-1.325396684988455,-6.391291005309172
28.55467216670513,-1.24468994140625,-1.8466796875,0.625946044921875,-0.8139738818939986,-1.963686889775997,-1.647915613009193
28.614053166704252,-2.034652709960938,-0.571868896484375,-0.142120361328125,-0.8365058226127229,-1.113263653622629,-0.1447960684676082
28.67340916674584,1.033737182617188,-2.885238647460938,0.117706298828125,-3.207635320198232,-0.5091814867210459,-1.133196349117436
28.732798166689463,-0.4578094482421875,-0.19696044921875,0.7879791259765625,6.181612343203964,-2.082733386295847,4.882106377701041
28.79216116666794,-0.3748321533203125,-0.6957855224609375,0.088104248046875,0.03288311524364439,-0.345808804385699,1.289306058527919
28.851533166714944,0.232177734375,-1.111572265625,-0.02362060546875,-1.104523158924989,0.7346489656648983,-1.052137182386477
28.910898166708648,0.1113433837890625,-0.9001922607421875,0.174957275390625,-0.6043889630591607,0.2757229266103017,-0.3881141835660437
28.970236166729592,0.2968597412109375,-0.95245361328125,0.1297149658203125,-0.5408059920335189,-0.2711026084351232,-0.4492033705469353
29.029623166657984,0.1620330810546875,-0.9677734375,0.062744140625,-0.3641143084544676,0.2903783020890078,0.3984706844131439
29.088984166737646,0.129730224609375,-1.003372192382812,0.0271453857421875,-0.3929819094064906,0.7882970142439996,0.8321148026074002
29.148348166723736,0.044525146484375,-1.015304565429688,0.1008758544921875,-0.4692425924853456,0.6408313930996959,0.8305083838378645
29.207708166679367,-0.0644989013671875,-0.9480133056640625,0.081298828125,-1.067777394836294,0.3350123493265177,0.522359873059194
29.267068166751415,0.135772705078125,-1.0120849609375,-0.0445709228515625,-1.452029994821723,0.2917330521355311,-0.06358723208338594
29.326427166699432,-0.0474853515625,-0.838897705078125,-0.2489166259765625,-0.697903201576203,0.6301483887029521,0.259196946781924
29.385794166708365,-0.0086822509765625,-0.9536590576171875,-0.1632080078125,-0.1559786818848509,0.8361178000418984,0.06424982656259766
29.44515716668684,0.181060791015625,-1.085220336914062,-0.037689208984375,0.0258491741725271,0.5489427481120379,0.09095281018060417
29.50452116667293,-0.069183349609375,-0.9363555908203125,-0.20867919921875,-0.1290759611850885,0.2095305903486002,0.2246648021913026
29.563888166681863,-0.02032470703125,-0.9846649169921875,-0.1499176025390625,-0.06178373939318428,0.251431169043253,0.1794661648026957
29.623254166683182,-0.0224609375,-0.9454345703125,-0.1894378662109375,0.1099347571662529,0.3087671630998959,0.112828015374515
29.68262216669973,0.0058441162109375,-1.002304077148438,-0.1194610595703125,-0.02796372407805002,0.1972709945865295,0.1939361842695323
29.741990166716278,-0.1000518798828125,-0.9658966064453125,-0.22406005859375,-0.1238577633451872,0.6520765908025555,0.1696875699121428
29.801355166709982,-0.0741424560546875,-0.9559783935546875,-0.176239013671875,0.04742610532434909,0.1456325673660021,0.1465755927079991
29.86069616675377,-0.028778076171875,-0.9876708984375,-0.13873291015625,0.02565476341295132,0.03597770843031646,0.113666378485672
29.92008316668216,-0.0230560302734375,-0.993316650390625,-0.155059814453125,0.01513580973935634,0.0681500259790187,0.144217629878843
29.979435166693293,-0.062286376953125,-0.9535675048828125,-0.1831817626953125,-0.03597877369475249,0.06614146988488094,0.1399523110769721
30.038797166664153,-0.056121826171875,-0.959442138671875,-0.1718902587890625,-0.08172975069344174,0.05539428330586617,-0.01130831462069446
30.098158166743815,-0.0339202880859375,-0.9590301513671875,-0.160491943359375,-0.07745377924721052,0.06196057328956554,0.01207104395689316
30.157537166727707,-0.0718231201171875,-0.9609527587890625,-0.1698455810546875,-0.04487266647118111,-0.02812005163403767,0.04932067812383146
30.21690216672141,-0.045013427734375,-0.9537200927734375,-0.1725311279296875,-0.04779521945143407,0.03247059159079111,0.05184855063053467
30.2762661667075,-0.005462646484375,-0.9501190185546875,-0.13458251953125,-0.04671983500326007,0.03228097452117747,0.03053314189775846
30.335631166701205,-0.06219482421875,-0.9712371826171875,-0.182403564453125,0.06446341208202201,-0.1074721321062567,0.003347593490229602
30.395000166725367,-0.132843017578125,-0.97369384765625,-0.2096099853515625,0.009338108046253841,0.1804781660169258,-0.01264575412013226
