time,accelerometerAccelerationX,accelerometerAccelerationY,accelerometerAccelerationZ,gyroRotationX,gyroRotationY,gyroRotationZ
0.0,0.0813140869140625,-0.979583740234375,0.0458984375,-0.05922817001114424,0.08378651000330993,-0.03719264251961061
0.059382000006735325,0.0586395263671875,-1.006454467773438,0.0581512451171875,-0.03378592685318125,0.06273342263790653,-0.006037386191209633
0.11876199999824166,0.0701446533203125,-0.9765472412109375,0.0443572998046875,-0.0116055233983473,0.02109543162673566,-0.02155615849531937
0.17813399992883205,0.081329345703125,-0.9779205322265625,0.0393829345703125,-0.008485363865210468,0.006334328652753468,-0.007535147988270196
0.23750699998345226,0.089385986328125,-0.9817047119140625,0.0406036376953125,-0.008435829068934995,0.01692971504963372,-0.01084971828098282
0.29686499992385507,0.07269287109375,-0.9805145263671875,0.0445098876953125,-0.007349259344182665,0.01769058017306935,-0.0449664097415519
0.3562349999556318,0.0908050537109375,-0.9815826416015625,0.037261962890625,-0.007355650930798856,0.01665620840568258,-0.04175730062800642
0.415608000010252,0.0939788818359375,-0.9809112548828125,0.044158935546875,-0.00962413154732835,-0.01070644021433655,-0.01267717942099519
0.47498599998652935,0.0770263671875,-0.98187255859375,0.0418243408203125,-0.01288171019271328,-0.02219611610526541,0.008766061044104821
0.5343690000008792,0.08245849609375,-0.98297119140625,0.034912109375,-0.01826236085910937,-0.03493747770853151,0.007838215720321213
0.593752000015229,0.0831146240234375,-0.9806365966796875,0.04791259765625,-0.02551468113961315,0.007419833113069765,-0.01075277921730393
0.6531349999131635,0.121795654296875,-0.9893035888671875,0.031280517578125,-0.05202804768800601,0.0308804181039048,-0.009958091948024288
0.7125099999830127,0.087921142578125,-0.9888458251953125,0.042572021484375,-0.05235242070877767,-0.02763162789011714,0.1026068031107909
0.771885999944061,0.053985595703125,-0.9853515625,0.02716064453125,-0.05879034632793521,-0.03476916592763851,0.1346595447265486
0.8312649999279529,0.049957275390625,-0.9822998046875,0.0232086181640625,-0.05234549648994346,-0.03004525078605595,0.06959052981264256
0.8906489999499172,0.0790252685546875,-0.98065185546875,0.0248870849609375,-0.06076907501786409,-0.009891246604663298,0.06296884607826954
0.9500269999261945,0.098724365234375,-0.9908905029296875,0.021820068359375,-0.06815242282399978,0.01527322885160443,0.1436961829374055
1.0094009999884292,0.15582275390625,-1.019622802734375,0.010284423828125,-0.04828790425309873,-0.03341201903613412,0.4149812179071991
1.0687759999418631,0.1823272705078125,-1.14276123046875,0.0695343017578125,0.03220827022341831,-0.0915794519850998,0.7162443920035787
1.1281520000193268,0.2212677001953125,-1.378005981445312,0.039520263671875,-0.3059109228307859,0.07895500315368818,1.269539011652915
1.1875189999118447,0.037445068359375,-1.258697509765625,0.1129150390625,-0.1864074278678783,0.6375226817613815,1.52138030750404
1.246902999933809,-0.0606689453125,-0.7460479736328125,0.039337158203125,0.1412498031600587,0.9938983767202969,1.078450811853114
1.3062800000188872,0.492706298828125,-0.5021820068359375,0.008209228515625,0.5484689717541128,1.625089925622233,-0.47174596391002
1.3656551250023767,0.295654296875,-0.7229461669921875,0.02490234375,1.030656657666116,0.4156198439366001,-2.417301786668649
1.425037125009112,0.01983642578125,-0.9120025634765625,0.162078857421875,1.062958138527687,-0.5409740374983029,-3.179510741190341
1.4844171250006184,-0.0424041748046875,-1.103347778320312,0.2379150390625,0.735175738928516,-0.258728496746179,-3.091110304598469
1.5437731249257922,-0.0915679931640625,-1.101577758789062,0.2940673828125,0.798025808022168,0.2523246595889745,-2.824914570471817
1.6031601249706,0.0228424072265625,-1.033599853515625,0.1152191162109375,0.9568226469725407,0.8641345210256409,-1.938365820447633
1.6625471250154078,-0.0195159912109375,-1.106521606445312,-0.0827789306640625,0.5248621792194325,0.3302788468050109,0.8930234272663845
1.7219341249438003,1.95977783203125,-1.38909912109375,-0.7691192626953125,0.204446615827639,-1.117049337112177,0.5091287561314624
1.7812751249875873,0.4014739990234375,-1.043258666992188,0.5784149169921875,0.5166681651774766,-0.1902937788466309,1.865534223588364
1.8406731249997392,-0.55010986328125,-0.9010772705078125,0.313262939453125,-0.006548713120504847,0.5375316354732664,0.8403913746431485
1.9000441249227151,0.430755615234375,-0.9623260498046875,0.358917236328125,0.1094825524131575,1.174042848652636,0.2844847265966624
1.9594361250055954,0.09832763671875,-0.89715576171875,0.3561553955078125,-0.1048230857699548,0.463173248361055,0.8081229169790944
2.0188051249133423,0.0349884033203125,-0.932464599609375,0.32452392578125,-0.1357988450408845,0.2280118630493141,0.9993671780187746
2.0781841250136495,0.115570068359375,-0.93048095703125,0.3737640380859375,-0.1550135523058062,0.4257968477262289,0.7690735185474806
2.1375891249626875,0.026947021484375,-0.9024658203125,0.3139495849609375,-0.1565256951727532,0.3533940198024627,0.9937106238634463
2.1969541249563918,-0.0783233642578125,-0.97882080078125,0.34271240234375,-0.1957636454095446,0.4103662260542008,1.17746447802117
2.256325124995783,0.0311431884765625,-1.125503540039062,0.2571258544921875,-0.2344183633676087,0.5889476887427723,1.29592294857233
2.315702124964446,0.130035400390625,-1.455841064453125,0.3061981201171875,-0.4327333171014493,0.6241536130891837,2.094867014538357
2.3750941249309108,0.9016876220703125,-1.826187133789062,0.0215301513671875,-0.9400207636552308,1.602535081718134,3.241403670188219
2.4344731249148026,-0.4739837646484375,-1.196395874023438,0.5809326171875,-0.7032396437685038,0.5748031075611434,3.769814245244073
2.493853124906309,0.104248046875,-0.2644500732421875,0.2920989990234375,-0.2697260204676613,0.6470733100626237,2.098953901547193
2.553232125006616,-0.16143798828125,-0.213775634765625,0.13275146484375,-0.3042070323653532,0.03882089921008505,-2.22616991102697
2.6126061249524355,-0.239227294921875,-0.466522216796875,0.123077392578125,0.08220326073525783,-0.9766416254888014,-4.61732531474544
2.6719831249210984,-0.3648529052734375,-0.9815673828125,0.231414794921875,0.3961057973651535,-1.106016659664306,-5.332036258593351
2.7313671249430627,-0.5196075439453125,-1.302474975585938,0.2813720703125,0.8200762492158061,-0.3770546081911627,-5.537071965654115
2.790742125012912,-0.660614013671875,-1.47369384765625,0.15411376953125,0.9664803343496041,0.02204271802647685,-5.166209739629605
2.850120124989189,-0.8259429931640625,-1.365737915039062,-0.072998046875,1.02614845857283,-0.2714546783312317,-1.77338139302057
2.9095021249959245,1.968734741210938,-1.233062744140625,-0.16748046875,0.0666344210026546,-0.866992359191405,1.477340677821836
2.968882124987431,0.096832275390625,-0.9200592041015625,0.4936065673828125,0.6551205839285161,-1.059039829615853,2.437978569372024
3.0282631249865517,-0.741943359375,-0.8175506591796875,0.280670166015625,0.1851195231647159,-1.619919398365844,2.530284798018607
3.0876441249856725,0.566925048828125,-0.942596435546875,0.44091796875,0.3351268652533912,1.37962903111072,0.1799956012274035
3.147016124916263,0.107391357421875,-0.9112396240234375,0.323516845703125,-0.043389818376225,0.405566144505442,0.9239043780025074
3.206368124927394,0.0457916259765625,-0.9307098388671875,0.3192596435546875,-0.05961219784033367,0.5816572852586803,0.8867793797745848
3.265772124985233,-0.029754638671875,-0.9470977783203125,0.3561859130859375,-0.1527301579871722,0.4746767726896522,0.8921797378330474
3.3251311249332502,-0.009063720703125,-0.9329376220703125,0.233489990234375,-0.1485740287899946,0.4443686679040055,0.8296279427814843
3.384522125008516,-0.0062103271484375,-1.03045654296875,0.3912200927734375,-0.191707651069354,0.5798173072615446,0.9954597880674103
3.4439051249064505,0.1850128173828125,-1.190155029296875,0.267669677734375,-0.3545034927125897,0.6494800087397282,1.373009744221328
3.5032961249817163,0.31201171875,-1.671310424804688,0.3739013671875,-0.6901688491383949,0.7252160490838376,2.507201050322018
3.562677124980837,0.89776611328125,-1.736251831054688,0.281768798828125,-0.9700830586722633,1.341362069407371,3.495823438606759
3.622058124979958,-0.5406646728515625,-0.9133453369140625,0.399200439453125,-0.4041480112249748,-0.5141354989808113,4.73168464774675
3.6814401249866933,0.636260986328125,-0.1545257568359375,0.1680908203125,-0.2584475332511757,0.9597973979101593,-0.4072244949162343
3.740817124955356,-0.1604156494140625,-0.31817626953125,0.143585205078125,0.2487003636614857,-0.7537305148753161,-3.489852631442801
3.8001991249620914,-0.2097320556640625,-0.7266387939453125,0.1844329833984375,0.3102763764896438,-0.9548212814133462,-4.83810083648079
3.859552124980837,-0.1376800537109375,-1.259857177734375,0.14678955078125,0.8703354253077815,-0.8755874452935267,-6.155100041920007
3.9189641249831766,-0.70635986328125,-1.583084106445312,0.1568450927734375,0.9047711634669421,0.6177487106675431,-6.197140702887999
3.9783521249191836,-1.503433227539062,-1.525070190429688,-0.12237548828125,1.585782466880991,-0.6315201829804519,-3.999010682346254
4.037734124925919,2.324188232421875,-2.039093017578125,-0.7494659423828125,0.05640894768118636,-0.4069730925093308,2.56480842049374
4.0971121250186116,-0.099578857421875,-0.83953857421875,0.8113555908203125,0.4876546229977174,-1.559285611931356,2.764255217690864
4.15648812497966,-0.525115966796875,-0.7809295654296875,0.2050628662109375,0.223638952539404,-2.039989118167858,2.619143298317972
4.215864124940708,0.378173828125,-0.928192138671875,0.419219970703125,0.2860954064239423,1.372693893316044,0.2205534141004382
4.2752351249800995,0.1777801513671875,-0.9642333984375,0.2404022216796875,-0.0535971822022807,0.07180494825904345,1.267603958804864
4.33460712491069,-0.059814453125,-0.942169189453125,0.268310546875,-0.01696007508606062,-0.05027009505244471,1.413930279634831
4.393979124957696,-0.0970001220703125,-0.9750518798828125,0.306060791015625,-0.107853230458247,0.07919921502564845,1.244047233698677
4.453349124989472,-0.0781097412109375,-1.031204223632812,0.31329345703125,-0.1630568314300635,0.3375716471340839,1.126053751073844
4.512720124912448,0.195526123046875,-1.095367431640625,0.2697601318359375,-0.3210557873178485,0.7608704497578185,1.486913676676235
4.572107124957256,0.0275115966796875,-1.559677124023438,0.3439178466796875,-0.4817322853655992,0.4014496964085065,2.246527114399536
4.63146412500646,1.140945434570312,-1.691314697265625,0.2684478759765625,-1.29027491653249,2.046995894995856,2.918698320891175
4.690846125013195,-0.2682037353515625,-1.040939331054688,0.4409027099609375,-0.6929481240520016,-0.2411215398313382,3.534729558971726
4.750220124959014,0.149322509765625,-0.33038330078125,0.287628173828125,0.100224871831824,1.281005784358469,2.550469961184753
4.809591124998406,-0.14056396484375,-0.1725006103515625,0.0317840576171875,0.1866870597823366,-0.1375112576218054,-1.810425963783572
4.868963124928996,-0.2442169189453125,-0.496429443359375,0.086517333984375,0.761120786900286,-1.766616431219551,-4.570986311778061
4.928342124912888,-0.1896209716796875,-0.9987335205078125,0.17559814453125,1.032318470186325,-0.7972079512514046,-5.762571935163266
4.987725124927238,-0.649383544921875,-1.5595703125,0.2956390380859375,1.184646490848895,-0.7840130533144981,-5.780766651730688
5.047097124974243,-0.4512481689453125,-1.77301025390625,0.0199737548828125,1.450319180137456,0.6482807873008656,-4.704962489368895
5.1064511250006035,-0.8242340087890625,-1.347137451171875,0.10614013671875,-0.08687178212616674,-1.799749350973445,1.919249117510826
5.165823124931194,0.075469970703125,-1.694793701171875,0.479736328125,0.3133480664909412,-1.587391548811616,-0.02391092553116743
5.225196124985814,0.0986328125,-1.085952758789062,0.860748291015625,0.5570704494428508,-0.9014901490039644,1.953341840521585
5.284573124954477,0.1586761474609375,-0.9259033203125,0.2119903564453125,0.02290265274246343,1.10339557651945,0.3161347982556001
5.343942124978639,0.0278167724609375,-0.8616485595703125,0.4771270751953125,-0.1431747359959679,0.04243054775157845,1.279611086895595
5.4033281250158325,0.211456298828125,-0.95965576171875,0.290374755859375,-0.1919750324427979,0.736654325965728,0.8274489443775814
5.462707124999724,-0.0379638671875,-0.9293212890625,0.3115386962890625,-0.2207190627202411,0.3051287524186296,1.162625344427248
5.522072124993429,0.14300537109375,-0.935821533203125,0.3276824951171875,-0.127952639837293,0.3196858572531118,1.036731860744804
5.581478124950081,-0.1475982666015625,-1.053573608398438,0.3297119140625,-0.2113207672333515,0.04383722943935831,1.295552236548591
5.640947124920785,0.10736083984375,-1.282119750976562,0.1138458251953125,-0.3532566006902146,0.7047464603132706,1.497110920490148
5.700330124935135,0.1820526123046875,-1.566741943359375,0.4463348388671875,-0.5418462227553038,0.5164942607582945,2.138639795479336
5.759713124949485,1.082962036132812,-1.84716796875,0.1943206787109375,-1.189359220713899,1.542440585404387,3.087394662245591
5.819094124948606,-0.3688812255859375,-0.8730621337890625,0.3563385009765625,-0.6477819772286938,-0.3049604406377366,4.147281643404198
5.878477124962956,0.63677978515625,-0.17974853515625,0.189727783203125,-0.1712433886209671,0.6166293840613828,-1.105825977330256
5.93786112498492,-0.1779022216796875,-0.267791748046875,0.123687744140625,0.1514992449313376,0.2457573043408391,-2.461672180958241
5.99724412499927,-0.1422119140625,-0.779327392578125,0.1517333984375,0.8801241402104767,-0.7325067188840386,-5.341260383344949
6.056619124952704,-0.204559326171875,-1.304901123046875,0.1855316162109375,1.36066599256881,-0.323388982748867,-6.50418293654985
6.116001124959439,-0.58941650390625,-1.66650390625,-0.0461883544921875,1.421714699501133,0.225485322123156,-6.530461944922315
6.175379124935716,-1.193450927734375,-1.555923461914062,-0.0850982666015625,1.271842113363616,-1.571753200574562,-2.280146327368478
6.23475512501318,2.535690307617188,-1.678817749023438,0.09112548828125,0.1819152077411326,-1.011957538388233,1.706030581684684
6.294131124974228,-0.32281494140625,-0.8936309814453125,0.72705078125,0.2902659166910064,0.3053948022115285,3.312781713724523
6.353487125015818,-0.6589508056640625,-0.8135528564453125,0.2307586669921875,-0.05652985519467596,-1.377267339856037,2.49445196555159
6.412863416597247,0.4659423828125,-0.938385009765625,0.440216064453125,0.2145048426326503,1.126611683322216,0.6069589135110871
6.472235416644253,0.2975616455078125,-0.89794921875,0.2845001220703125,-0.1601358763464646,0.4876242629612905,0.9122855387987097
6.531603416660801,-0.0183868408203125,-0.9305572509765625,0.2818603515625,-0.1437094987428559,0.1718524535622682,1.378377611714491
6.590973416576162,-0.0865631103515625,-0.9892730712890625,0.30999755859375,-0.2720680043302769,0.2659573812090901,1.282414330259012
6.650344416615553,0.02154541015625,-1.0673828125,0.2940826416015625,-0.3215484721195132,0.4121603976805872,1.460915365482663
6.70971441664733,0.26995849609375,-1.260025024414062,0.236358642578125,-0.3777188005670284,0.5052008598397044,1.754051104564339
6.769075416610576,0.5838165283203125,-1.9501953125,0.2972869873046875,-1.019951815348433,1.083155552234847,2.989148519103695
6.828443416627124,-0.0311431884765625,-1.576278686523438,0.6539459228515625,-1.336806199730573,1.745298359325685,3.75767076330553
6.887811416643672,-0.51568603515625,-0.1703948974609375,0.2961578369140625,0.2173118144215938,0.7270488365460303,1.935216366142505
6.94715041667223,0.1751556396484375,-0.0447540283203125,-0.035125732421875,-0.2225438606991634,0.7104280481828457,-1.939352787947616
7.006546416669153,-0.0789947509765625,-0.4317169189453125,0.08135986328125,1.113511327604007,-1.035482305561339,-4.309215153486466
7.065903416601941,-0.08367919921875,-1.063323974609375,0.189483642578125,1.559804928343921,-0.795101390829152,-6.555378480081097
7.125260416651145,-0.4366302490234375,-1.970809936523438,0.3365631103515625,1.876640137966213,-0.6817846853946075,-6.731288259564101
7.184626416652463,-1.134567260742188,-1.846176147460938,-0.2523956298828125,1.895412227857963,-0.7010364105986813,-4.18782933626509
7.243997416575439,-0.0435943603515625,-1.249725341796875,0.4525909423828125,-0.03562936695973409,-1.353240300501342,3.426859284282503
7.3033704166300595,-0.3574676513671875,-0.890045166015625,-0.17669677734375,-0.8076818975025774,3.838940319762606,-0.3646320269703791
7.362735416623764,-0.771209716796875,-0.58697509765625,0.53387451171875,0.06267909415166892,-1.604716210650909,2.64730889000665
7.422106416663155,0.9588623046875,-0.960052490234375,0.3801727294921875,0.2459940593617472,1.460532669234019,0.2888491149910842
7.481490416685119,0.050262451171875,-0.8599090576171875,0.311279296875,-0.08672903669173848,-0.1376670525455751,1.722907033512517
7.540863416623324,-0.0002288818359375,-0.9504852294921875,0.248626708984375,-0.2288907062090403,0.634649397261295,1.299684929928176
7.600233416655101,-0.137542724609375,-0.9716033935546875,0.331787109375,-0.2533571671435982,0.3881831594382768,1.172352806624872
7.659610416623764,-0.0048828125,-1.066360473632812,0.2718963623046875,-0.3144325056868215,0.5266395729309513,1.068470349351933
7.718986416584812,0.18853759765625,-1.108367919921875,0.258941650390625,-0.4310294266360166,0.6748612655087285,1.333255673365279
7.778371416614391,0.053192138671875,-1.372787475585938,0.3722686767578125,-0.8030282898137728,0.502293753193774,2.611934121247128
7.837751416605897,1.17913818359375,-1.701522827148438,0.08636474609375,-1.114800297571605,1.503906774959813,2.715855460671982
7.897129416582175,-0.35797119140625,-0.959808349609375,0.5595245361328125,-0.4806973809659944,-0.1221323012749249,3.850088312085677
7.956500416621566,0.2918701171875,-0.2570953369140625,0.3301239013671875,0.1041248049321361,1.24113639862722,0.9083595067197148
8.015850416617468,-0.1707305908203125,-0.1842193603515625,0.027435302734375,-0.1144424236273211,1.255582449644246,-2.374874434710379
8.075225416687317,-0.1699066162109375,-0.57318115234375,0.0138702392578125,1.15584387102747,-0.6121792418798604,-4.243516034658647
8.134600416640751,-0.17510986328125,-1.096923828125,0.164459228515625,1.677330759881336,-1.315184793788546,-5.726710873188695
8.193969416664913,-0.5791473388671875,-1.7164306640625,0.3637542724609375,1.221006096579529,-0.570552968777486,-6.264891521019614
8.25333841657266,-0.9310150146484375,-1.763015747070312,-0.3222503662109375,1.344496876326503,0.5587005703460882,-2.713988052115619
8.31271341664251,-0.396759033203125,-1.448394775390625,0.4032440185546875,-0.03742646806331957,-1.283689451788942,1.416869344213843
8.372081416659057,-0.4742889404296875,-1.277877807617188,-0.066436767578125,-0.1384316460945368,0.7488990080256943,4.311766461810762
8.431461416650563,-0.514190673828125,-0.6929931640625,0.753021240234375,-0.2418933239152432,-1.167782289562078,2.451550038287068
8.49081441666931,0.8659820556640625,-0.9585418701171875,0.178619384765625,-0.1669322634483468,1.495133523380764,0.2157932799680306
8.550200416590087,-0.0640869140625,-0.9018707275390625,0.2204132080078125,-0.2731151592708961,-0.1613087324905355,1.628215677793659
8.609589416650124,0.1462249755859375,-0.911102294921875,0.2978057861328125,-0.1785143510291014,0.02431838917794956,1.50469933170022
8.668944416684099,-0.1345367431640625,-0.955596923828125,0.2698974609375,-0.3237642221464591,-0.2892350070330367,1.682898364456256
8.728319416637532,-0.0301361083984375,-0.9981536865234375,0.31414794921875,-0.3391839248580179,0.4785820321121445,1.153195091007277
8.787705416674726,0.0803375244140625,-1.213348388671875,0.260589599609375,-0.5099474118505527,0.677334809529194,1.589007554961076
8.847082416643389,0.1740875244140625,-1.594650268554688,0.4093017578125,-0.7318430591403908,0.885848871289711,2.151530560419755
8.906455416581593,0.882537841796875,-1.72308349609375,0.6776275634765625,-1.464823288066246,2.084161639588457,3.099409779819592
8.965830416651443,-0.2503662109375,-0.8048248291015625,0.25128173828125,-0.9393720176136875,1.068227469060517,3.496719325997462
9.025199416675605,0.4475555419921875,-0.2263946533203125,0.051971435546875,0.1137526649049905,0.9480280901047721,-1.625244655281567
9.084575416636653,-0.0582427978515625,-0.2405548095703125,-0.031463623046875,1.153752224307322,-0.5850352387853368,-2.112016174061814
9.143951416597702,-0.2688751220703125,-0.72625732421875,0.0460662841796875,1.7593124456139,-2.312295741731806,-4.179709890733657
9.20330741663929,-0.1635589599609375,-1.131698608398438,0.16522216796875,1.076014019455691,-1.502124054926113,-5.805937785089681
9.262689416646026,-0.719757080078125,-1.520050048828125,0.078887939453125,1.303969423489896,-1.24585019375666,-5.823581227311456
9.322059416677803,-0.91778564453125,-1.462158203125,-0.117095947265625,1.388540234434234,-0.1236465746707439,-3.213807994972818
9.381438416661695,-0.6870269775390625,-1.50830078125,0.359039306640625,-0.1444264217083052,-1.521445821266856,2.378752529889752
9.440806416678242,-0.11114501953125,-1.592910766601562,0.19097900390625,0.5564494002766442,-2.049730961435368,-0.5676352094871951
9.500179416616447,-0.2121429443359375,-0.9637603759765625,0.907806396484375,0.7387832569411373,-1.171750932218514,2.334802915052392
9.559552416671067,0.326995849609375,-1.00067138671875,0.110443115234375,0.01854412330243975,1.311181796354048,0.2626771656944396
9.618922416586429,-0.0370025634765625,-0.8111419677734375,0.48199462890625,0.1795716259818629,0.04716484922141231,1.081452194401633
9.678297416656278,0.169708251953125,-0.9394378662109375,0.238616943359375,-0.2598840423431644,0.7969554835800652,0.8960354624592641
9.73764941666741,-0.1427764892578125,-0.933685302734375,0.3135528564453125,-0.2831291776018121,0.1723640468076724,1.267453223887165
9.797017416683957,0.11572265625,-0.9871063232421875,0.3141326904296875,-0.3003177519094015,0.5802737730723841,1.010326618536669
9.856380416662432,-0.032379150390625,-1.137130737304688,0.2376556396484375,-0.3574462857171273,0.2238594622776626,1.298827392057171
9.915772416628897,0.1530914306640625,-1.187667846679688,0.337066650390625,-0.6713355065415726,0.5888337054481169,1.983225703745582
9.975124416640028,0.6125640869140625,-1.76312255859375,0.396453857421875,-1.331991204479709,1.507745721671162,2.715711649973118
10.034508416661993,-0.1978912353515625,-1.5701904296875,0.6329803466796875,-1.459013335832129,2.187965533609238,3.065224378802899
10.093872416648082,-0.674835205078125,-0.2763519287109375,0.283172607421875,-0.2041478091533321,0.9201245534673579,3.215167272393194
10.153259416576475,0.17474365234375,-0.054412841796875,-0.1267547607421875,0.251233562490369,0.7014763648107624,-1.949691711931522
10.212616416625679,-0.155853271484375,-0.3668365478515625,0.06439208984375,1.102362802648717,-0.4587318946111298,-2.508882570234294
10.272001416655257,-0.1900787353515625,-0.903839111328125,0.1382904052734375,1.613290257780419,-1.030571436511233,-5.033847970291577
10.331369416671805,-0.332611083984375,-1.442031860351562,0.3101959228515625,1.871064543908023,-1.321814200690081,-5.689240729283498
10.390743416617624,-0.524078369140625,-1.696380615234375,0.12109375,1.856456040064502,1.181497835492095,-5.066666104404622
10.450114416657016,-1.107803344726562,-1.48358154296875,-0.329376220703125,1.375571705189984,-0.2586557924484199,-2.012121001572941
10.509485416579992,1.98541259765625,-2.482391357421875,-1.2203369140625,0.4346289551653677,-2.691834280271685,0.8048099445830359
10.568859416642226,-0.2735595703125,-1.202529907226562,0.966217041015625,1.159190399253264,-2.384873805655299,2.380360013923724
10.628230416681617,-0.3244781494140625,-0.8439178466796875,0.0047454833984375,-0.4092058867672533,-0.7892797206862388,1.938861701042606
10.687605416635051,0.2980499267578125,-0.8893890380859375,0.5679779052734375,0.04764128874042749,0.2633666581006611,0.7315218819129273
10.7469814165961,0.2055511474609375,-0.91534423828125,0.3058624267578125,-0.3568278997120108,1.005355029413709,0.7593876016628623
10.806357416673563,0.071563720703125,-0.9160003662109375,0.284759521484375,-0.3015539912874163,0.3199367270277972,1.12724951040329
10.865706416661851,-0.13177490234375,-0.9505157470703125,0.3280029296875,-0.3423269875765294,0.04958885844560244,1.422269702272305
10.925094416597858,-0.0765838623046875,-1.018768310546875,0.2926483154296875,-0.4363046161232456,0.2092419036864357,1.301083622132686
10.984472416574135,0.10980224609375,-1.228897094726562,0.1825714111328125,-0.5038881877384044,0.3498147312973962,1.437002309422624
11.043853416573256,0.2002105712890625,-1.7470703125,0.5406646728515625,-0.9258868351179623,0.6208068185472811,2.39312561029291
11.103231416665949,0.947296142578125,-1.6680908203125,0.5203399658203125,-1.508201921165892,1.921584709786826,3.203509551037481
11.162602416588925,-0.584503173828125,-0.7732086181640625,0.307830810546875,-1.463666410888715,1.465600931104549,3.682886536735015
11.221968416590244,0.2824249267578125,-0.0855865478515625,0.025665283203125,0.3508890504811342,0.4063754791607171,-1.642607932956665
11.281351416604593,-0.08953857421875,-0.205810546875,-0.0174560546875,1.263133576599057,-0.6915427739447668,-2.468932490722015
11.340723416651599,-0.2561798095703125,-0.7233123779296875,0.092864990234375,1.785990395517659,-1.433133002674848,-4.84066173218501
11.400116625009105,-0.27117919921875,-1.228057861328125,0.1729278564453125,1.650874917612489,-1.265221494893679,-5.611091332359559
11.459472624934278,-0.70233154296875,-1.623886108398438,0.23028564453125,1.574621691384686,-0.0367958315171888,-5.975360636789469
11.518866624915972,-0.9121856689453125,-1.665985107421875,-0.4696502685546875,1.363885754326716,0.2034173040663234,-2.148329973421698
11.578250624937937,1.617630004882812,-0.3892974853515625,1.56903076171875,0.7555617044408546,-2.344458738216693,0.9098492790335051
11.637641625013202,-0.4852752685546875,-0.709228515625,0.3619384765625,-0.1450666456343602,-0.3677599096706771,3.334927496085185
11.697003624984063,-0.8839874267578125,-0.7753448486328125,0.3773956298828125,-0.3999050629762606,-1.354617421101022,1.686089364074389
11.756404625019059,0.8143157958984375,-0.961822509765625,0.4746246337890625,0.08262297492305432,0.6894873462154436,0.6309060580330796
11.815781624987721,0.11077880859375,-0.877349853515625,0.3145751953125,-0.3415376266294299,0.2111473954463874,1.308568170060245
11.875160624971613,0.03802490234375,-0.9480438232421875,0.321044921875,-0.3360840053491657,0.2203193222406203,1.144320905622916
11.934535624925047,-0.0704345703125,-0.9707183837890625,0.333648681640625,-0.3874707638466806,0.3878401442898746,1.087021929505425
11.993910624994896,0.01837158203125,-1.008056640625,0.29107666015625,-0.3994038560591077,0.5633872012324097,0.9891486289161405
12.053291624994017,0.062713623046875,-1.103652954101562,0.2912139892578125,-0.5204828771229062,0.4304073122053741,1.292208904116106
12.11266862496268,0.0258636474609375,-1.275558471679688,0.3828582763671875,-0.9230377853837956,0.3084768785410772,2.397638603076158
12.172044624923728,0.7979278564453125,-1.8570556640625,0.3040924072265625,-1.335119886128334,1.038383020620653,2.620693790704617
12.231416624970734,-0.2598419189453125,-1.481674194335938,0.6483154296875,-1.422052388327355,1.244125264318616,3.641647487255137
12.290789624908939,-0.346649169921875,-0.205657958984375,0.3113250732421875,-0.03613749809572121,1.417721555762668,1.857128754555856
12.350140624912456,-0.08819580078125,-0.1118927001953125,-0.048431396484375,-0.247836966836082,0.1176573916952647,-1.453169827768277
12.409544624970295,-0.1330413818359375,-0.446533203125,0.04608154296875,1.040750038197516,-1.002610109278164,-3.369487870183362
12.468928624992259,-0.1689605712890625,-0.8493499755859375,0.1660003662109375,1.383607527463189,-1.2480273279478,-5.437664151644727
12.528291624970734,-0.415496826171875,-1.59063720703125,0.3186798095703125,1.821849326963358,-1.182545523064932,-6.060667545459106
12.587670624954626,-0.630218505859375,-1.77313232421875,0.1083984375,1.533606347436376,0.5349736692462453,-6.091475525581361
12.647076624911278,-1.062347412109375,-1.435165405273438,-0.0259246826171875,0.1023894891658404,-0.4440898349378742,-0.08458838780753279
12.706451624981128,0.4908905029296875,-1.760650634765625,-0.3827056884765625,-0.692625348927884,1.827578585416446,2.453468046904143
12.76583862490952,-0.1290740966796875,-0.9496002197265625,0.777191162109375,0.3587757357332948,-1.759533487984376,3.147996490746998
12.825224624946713,0.19354248046875,-1.02105712890625,0.1300201416015625,-0.2046410265872148,1.188078772861789,0.4451340604012943
12.884619624936022,-0.004638671875,-0.868743896484375,0.479095458984375,-0.2217044323235705,0.1080287327740832,1.342804703769867
12.944011625018902,0.255462646484375,-0.93701171875,0.29449462890625,-0.250055380024118,0.1905763402382883,1.296047051879128
13.003399624954909,-0.120330810546875,-0.91851806640625,0.2968597412109375,-0.3484346812205171,-0.3421480231512761,1.576880584621292
13.062782624969259,0.0047149658203125,-0.97369384765625,0.2277374267578125,-0.3263618694737224,0.2442116056441571,1.085437348656827
13.12216162495315,-0.056365966796875,-1.044204711914062,0.3720703125,-0.3414886244653725,0.4621692366300951,1.340973514204329
13.1815376249142,0.12518310546875,-1.210494995117188,0.3935394287109375,-0.518327314536596,0.4792318434181238,1.651945508370701
13.240917624905705,0.459747314453125,-1.734603881835938,0.445404052734375,-1.113453803324461,1.072011022021193,2.533022527619208
13.300295624998398,0.27325439453125,-1.750335693359375,0.36663818359375,-1.332798142290003,1.633907119359267,3.292037286729459
13.35967462498229,-0.5587615966796875,-0.5743408203125,0.297943115234375,-0.9921729146500345,0.2332023640138786,3.607167540621881
13.419053624966182,0.2862701416015625,-0.0699310302734375,-0.031524658203125,0.130439499663209,0.9208417427489162,-1.204972268920598
13.478433624957688,-0.11224365234375,-0.29656982421875,0.0239105224609375,1.392476386525371,-1.167938617118065,-3.44424439987854
13.537813624949194,-0.2446441650390625,-0.7982940673828125,0.1715545654296875,1.747744206470813,-1.036184581140793,-5.629561419783695
13.597196624963544,-0.1677703857421875,-1.291915893554688,0.0602264404296875,1.757624534115007,-0.5433961825097299,-6.012322116926462
13.656579624977894,-0.4644622802734375,-1.698501586914062,-0.11358642578125,1.747465107188573,0.3034573525184959,-5.763721888121963
13.715962624992244,-1.134979248046875,-1.445693969726562,-0.12591552734375,0.2003096613903099,-1.658462796190343,-0.2928523787416913
13.77534462499898,1.643478393554688,-0.5496826171875,1.067123413085938,-0.4044473505314997,-1.261386542923965,2.990786363174094
13.834730624919757,0.056488037109375,-0.8050994873046875,0.09478759765625,0.0929134293751205,-0.7992386115825901,2.673611334196709
13.894109625020064,-0.809295654296875,-0.813690185546875,0.455047607421875,-0.4097976411614689,-0.2215827258617538,1.856919430094176
13.953494624933228,0.8720245361328125,-0.9239959716796875,0.4152984619140625,0.0335995055768757,0.238257310078958,0.8927432627197082
14.012847624951974,-0.0458984375,-0.902191162109375,0.29541015625,-0.386613225975675,0.1292674424674652,1.284934745914663
14.072235625004396,0.0442657470703125,-0.952423095703125,0.2631988525390625,-0.3641840832750277,0.3695426297043762,1.189561088324528
14.131623624940403,-0.058441162109375,-0.96307373046875,0.3496551513671875,-0.369672325649463,0.3231511624635229,1.106930123918203
14.190995624987409,0.1403656005859375,-0.934906005859375,0.364654541015625,-0.4435574690359674,0.6785702499588818,0.902585240844205
14.250394625007175,0.0517578125,-1.2303466796875,0.0849761962890625,-0.6278396943539624,0.4940419485561635,1.485450535973345
14.309789624996483,0.1153564453125,-1.35150146484375,0.372802734375,-1.095259619389258,0.4121071344587856,2.768414010049132
14.369255624944344,1.2061767578125,-1.885147094726562,0.3857421875,-1.623572190116997,1.328524834004862,2.896623911247727
14.428633624920622,-0.364410400390625,-1.132431030273438,0.645050048828125,-1.193231456938875,-0.2704458729103097,4.990838983951233
14.488017624942586,-0.147186279296875,-0.309356689453125,0.346405029296875,-0.3125880003158326,0.7115772021932149,3.142804391885779
14.547399624949321,-0.13592529296875,-0.0348663330078125,-0.0172271728515625,-0.1900335880081302,0.3697077456919611,-1.890810818126524
14.606777624925599,-0.2437744140625,-0.3826751708984375,0.140960693359375,0.9920008744436154,-1.744906608329334,-4.074408501231924
14.666154625010677,-0.23638916015625,-0.822540283203125,0.280364990234375,1.290458142015487,-1.570804316278167,-5.202846314113606
14.72552962496411,-0.44000244140625,-1.718856811523438,0.3634033203125,2.002006315752821,-0.6762525008621858,-6.177022651381321
14.784897624980658,-0.3961334228515625,-2.0361328125,-0.11248779296875,1.969931203583906,0.8133791980225838,-5.329026886561561
14.844288624939509,-1.106201171875,-1.82513427734375,0.78924560546875,-0.2699225617561091,-2.688963925248798,2.227425857797051
14.903660624986514,-0.4288330078125,-0.5373687744140625,0.093780517578125,-0.08725580995535616,-0.2955072840323913,3.355475381791801
14.963055624975823,-0.2769775390625,-0.778289794921875,0.6917266845703125,0.6256638917433677,-2.847528270236007,2.627174326901216
15.0224336249521,0.5974884033203125,-0.9709014892578125,0.280609130859375,0.008276039403530241,2.252490997344659,-0.4725246722127592
15.081799624953419,-0.106658935546875,-0.8409271240234375,0.3181610107421875,-0.1381594710311307,0.4163157279294378,1.027133828176159
15.141173625015654,0.3594512939453125,-0.894805908203125,0.4134368896484375,-0.2439578063922726,0.5779054239149767,1.123364491005082
15.200546624953859,-0.0857696533203125,-0.95843505859375,0.2489166259765625,-0.4211863832470837,-0.1905262728097948,1.516549333286637
15.259923624922521,-0.08831787109375,-0.986358642578125,0.248565673828125,-0.38294765105129,0.237923615994371,1.31891242036633
15.319296624977142,-0.0267791748046875,-1.089157104492188,0.4558563232421875,-0.4523469658976649,0.2082464140709641,1.424731528383975
15.378663624986075,0.2231292724609375,-1.349533081054688,0.4222412109375,-0.8491760778148839,0.6047996224992509,2.16843311122627
15.438048625015654,0.868865966796875,-1.900131225585938,0.499114990234375,-1.647284443830844,1.774354245766776,3.207200692308331
15.497430624905974,-0.0438385009765625,-1.458099365234375,0.5904083251953125,-1.61660536070535,1.980320727628523,3.322191727120209
15.556780625018291,-0.76104736328125,-0.25286865234375,0.2396240234375,-0.3717000565034493,1.699981477584678,2.552022584100269
15.61616662493907,-0.0950927734375,0.013427734375,-0.0891876220703125,0.5124007158467336,-0.8408973752502635,-1.581872413768536
15.675543624907732,-0.1688232421875,-0.2266387939453125,0.0465087890625,1.182009961369717,-1.452537859641601,-2.528792362543726
15.734892625012435,-0.19537353515625,-0.790435791015625,0.1611785888671875,1.568326511199957,-0.9003548434312637,-5.466995142626424
15.79427562491037,-0.1820220947265625,-1.553115844726562,0.1615447998046875,2.021934217557666,-0.9905348042635268,-6.268411154716262
15.853650624980219,-0.485137939453125,-1.91094970703125,0.291015625,2.125939180240748,-0.5992221642282979,-6.316381610167424
15.913027624948882,-1.576248168945312,-1.597412109375,-0.1594696044921875,1.024191035171621,0.01868447189188693,-1.642279831510367
15.972425624961033,0.8834381103515625,-2.178436279296875,-0.5590972900390625,-0.6569853293237896,3.181778689174653,-0.9851267230379029
16.031800624914467,-0.5458984375,-1.236495971679688,0.813751220703125,0.04033517260590411,-2.266567135286273,3.010610934328644
16.09115762496367,0.343719482421875,-0.97149658203125,0.23529052734375,-0.317577698934205,0.7260908975019287,0.6697535888540654
16.15053162490949,-0.162994384765625,-0.8997344970703125,0.3137359619140625,-0.3232124151685947,0.06990265229239985,1.68639775812862
16.209919624961913,0.1226806640625,-0.914520263671875,0.38720703125,-0.3629632902313354,0.4046337718078052,1.193438118239465
16.269305624999106,-0.0176544189453125,-0.951507568359375,0.270965576171875,-0.4201323040876304,0.2469346878587632,1.243116725213803
16.32866362493951,-0.042327880859375,-0.9403228759765625,0.305511474609375,-0.4552045377473199,0.4748765097714082,1.05405306047468
16.388041791622527,-0.0029754638671875,-1.052230834960938,0.2181549072265625,-0.6341306134809476,0.4969402667704967,1.328728299512144
16.447436791611835,0.0782928466796875,-1.097503662109375,0.33355712890625,-0.7336087349431134,0.4307489957732313,1.622534622556302
16.506813791580498,0.343231201171875,-1.742904663085938,0.4903106689453125,-1.281710723099013,0.8096869914872979,2.365293979004928
16.566189791657962,0.429840087890625,-1.908248901367188,0.3768310546875,-1.938054763232312,1.259437641638245,3.028344924027482
16.625560791580938,-0.5921630859375,-0.8218841552734375,0.3767547607421875,-1.555476758940325,-0.6305763586901278,4.384947998037267
16.684935791650787,0.1163177490234375,-0.187408447265625,0.06427001953125,-0.5094392807145656,0.1887544717365651,0.5125093728192089
16.744308791588992,-0.2346343994140625,-0.07452392578125,0.095703125,0.7720828905792702,-0.7242317447449443,-2.366474824632269
16.803687791572884,-0.1519927978515625,-0.4423065185546875,0.0906219482421875,1.54032976392439,-0.6830201258242952,-5.044111793132742
16.863062791642733,-0.017913818359375,-0.9030914306640625,0.1046600341796875,1.901705810146038,-0.9011319538373488,-5.684274466482719
16.922434791573323,-0.6835479736328125,-1.81268310546875,0.2786865234375,2.350146451356775,-0.4811077740899756,-6.461476485309339
16.981803791597486,-1.02203369140625,-1.858856201171875,-0.6381988525390625,1.728571577151115,-0.1620072796444633,-2.259245306501318
17.041180791682564,2.30926513671875,-0.491668701171875,1.567901611328125,-0.3709575671915353,-1.57798419857702,1.424223929880206
17.10054979159031,-0.18115234375,-0.643890380859375,0.2081756591796875,-0.1871419276965221,-0.5184687283904792,3.095677093235737
17.15991779160686,-0.9765472412109375,-0.744049072265625,0.3488922119140625,-0.5196114908142322,-0.9663048320337679,1.825645929413375
17.21929479157552,0.91864013671875,-0.974395751953125,0.47723388671875,0.005481850787819104,0.3064062707935407,0.2929423935865361
17.2786717916606,0.0268096923828125,-0.83880615234375,0.343048095703125,-0.3472027029002465,-0.071420387797636,1.554708170649728
17.338042791583575,0.027862548828125,-0.9446868896484375,0.349334716796875,-0.3275794667241066,0.2296965787548983,1.247613739030511
17.39741679164581,-0.0956573486328125,-0.9692535400390625,0.3125,-0.423851142233817,0.1334794980475345,1.267816479059852
17.456794791622087,0.027618408203125,-1.024154663085938,0.2992095947265625,-0.4603673418365475,0.5007331407949875,0.9716910753384531
17.516158791608177,0.0995025634765625,-1.218353271484375,0.19940185546875,-0.5964841683115875,0.5933240613620995,1.428943051331826
17.575532791670412,-0.0035552978515625,-1.498550415039062,0.444305419921875,-1.187064108486469,0.5767205835460004,2.607735914104727
17.634895791648887,1.1220703125,-1.836654663085938,0.4045562744140625,-1.618131884642183,1.563446002186278,2.669129766714324
17.694261791650206,-0.226837158203125,-1.058700561523438,0.518402099609375,-1.73162782081809,0.6991844483766402,4.518355324419261
17.753659791662358,-0.050750732421875,-0.346893310546875,0.3755340576171875,-0.01338078658099412,0.8931874779895334,0.686172509606622
17.813042791676708,-0.2198028564453125,-0.0348358154296875,-0.00042724609375,0.3154066900135724,0.1010565770402558,-1.57849978656406
17.87241079157684,-0.08837890625,-0.37579345703125,-0.00787353515625,1.666787305125713,-0.8266763613453495,-3.811353166662693
17.93178379163146,-0.0102996826171875,-0.8240509033203125,0.0930633544921875,2.03848523110029,-0.800144086353217,-5.752476424102994
17.991151791648008,-0.4489288330078125,-1.813980102539062,0.378631591796875,2.241631691683752,-1.11875056441652,-6.032395959959042
18.050526791601442,-0.788116455078125,-1.856948852539062,-0.1338043212890625,1.883501506198693,0.2936558544425683,-5.379826151722605
18.109881791635416,-0.28582763671875,-1.571807861328125,0.43194580078125,-0.3685777664414405,-1.010985484590354,1.749464608535005
18.169240791583434,0.104583740234375,-1.433441162109375,0.363189697265625,0.2951458930724676,-1.152284023598361,3.801059516417319
18.228609791607596,-0.6673583984375,-0.816864013671875,0.68841552734375,0.9913036588702326,-2.700381163158077,3.056345399728575
18.28798379166983,0.742523193359375,-0.9458465576171875,0.22125244140625,-0.1146533459856553,2.157043570192328,-0.3734662649383899
18.34735579160042,-0.132049560546875,-0.8292694091796875,0.446044921875,-0.4007839061359867,0.07317328042712616,1.426245801779794
18.406729791662656,0.3477020263671875,-0.909820556640625,0.2905120849609375,-0.4386876126666485,0.8042669260367687,0.8201923630393335
18.46610079158563,-0.1779937744140625,-0.9662322998046875,0.3087310791015625,-0.432590039034803,-0.3480458597013655,1.60248794376684
18.52547779167071,0.07958984375,-0.9803466796875,0.33544921875,-0.4710130619780303,0.5053220336693031,1.006810180633328
18.584846791578457,-0.0960540771484375,-1.058639526367188,0.4141082763671875,-0.5055489349941779,0.2089465591215459,1.365008543042294
18.64421579160262,0.0470123291015625,-1.259048461914062,0.3901214599609375,-0.7987949289449829,0.6365466332218674,1.806766247813586
18.703589791664854,0.6297607421875,-1.676055908203125,0.3921051025390625,-1.509037621115959,1.406943742831117,2.426816195979066
18.762944791582413,0.0315093994140625,-1.710250854492188,0.4565277099609375,-1.844441987754937,1.704774901230712,2.958455587540532
18.82233379164245,-0.6628570556640625,-0.4839324951171875,0.1840667724609375,-0.8847793457959352,0.3818323191867648,3.145109091493134
18.881703791674227,0.1675567626953125,-0.047119140625,-0.1197052001953125,-0.08817619842808755,0.3767922868237898,-1.167095194000837
18.941075791604817,-0.1610870361328125,-0.172607421875,0.0275726318359375,1.340947947857864,-1.454701944343399,-3.08616002076423
19.00045479158871,-0.1696319580078125,-0.710906982421875,0.1434783935546875,1.645960852769075,-1.483844916152137,-4.248593084960774
19.059829791658558,-0.068115234375,-1.240814208984375,0.1620330810546875,1.644815693500341,-1.201043041048295,-5.685349318298675
19.119200791581534,-0.5364532470703125,-1.813568115234375,0.38201904296875,1.741191232292564,-0.1793617688879646,-6.062179688326053
19.17858779162634,-0.98333740234375,-1.77789306640625,-0.6339111328125,0.9096447482617871,0.352531421925386,-1.654543688330182
19.237964791595004,1.215408325195312,-0.3824005126953125,1.06915283203125,-0.5998908839780168,-2.109141824297291,2.932896165294606
19.29734479158651,-0.3063812255859375,-0.785430908203125,-0.07781982421875,-0.001785915827007137,-0.6945827723290923,3.431333394913836
19.356722791679204,-0.6505584716796875,-0.663604736328125,0.4849700927734375,0.708725755614067,-2.57778227606017,2.885382708286502
19.416099791647866,0.5959930419921875,-0.96820068359375,0.289764404296875,-0.09431691526959225,1.774005904296194,0.1775758530609575
19.4754747916013,0.1424560546875,-0.870269775390625,0.45928955078125,-0.09564476738910577,-0.2968812088387632,1.129887105146904
19.53485179168638,0.0602569580078125,-0.9587554931640625,0.30865478515625,-0.2803094226396362,0.3196027666271013,1.217864631757672
19.594224791624583,-0.0907440185546875,-0.94781494140625,0.3513641357421875,-0.29058709391847,0.1713240824019965,1.267461213370435
19.653598791686818,0.0049896240234375,-0.9863739013671875,0.3040924072265625,-0.4364590794664702,0.6228595831155143,1.095065208629682
19.712978791678324,0.080841064453125,-1.11602783203125,0.39996337890625,-0.6106069115722776,0.5547305961091071,1.627619662341699
19.772355791646987,0.074066162109375,-1.594375610351562,0.4304046630859375,-0.9370444148209583,0.726907422692147,2.251251029541118
19.83173279161565,1.091659545898438,-2.055633544921875,0.6038360595703125,-1.56579970395769,2.134162222738586,3.193676095028473
19.891104791662656,-0.48211669921875,-0.9492034912109375,0.3046417236328125,-1.187084881142972,0.7409942132781211,4.019307165645966
19.95044879161287,0.3280792236328125,-0.1674957275390625,0.0623779296875,0.1295286985704019,0.9021040076352277,-1.647114534153297
20.009848791640252,-0.122222900390625,-0.1461334228515625,-0.0189361572265625,1.292446990717559,-0.5742971069540284,-2.537364012828256
20.069221791578457,-0.035247802734375,-0.603118896484375,0.0268707275390625,2.41128037944398,-1.127496918068558,-4.787248840730163
20.12859079160262,-0.0063323974609375,-1.172958374023438,-0.0130157470703125,2.345598837479355,-0.7611628648455092,-6.292108494728006
20.187956791603938,-0.4648895263671875,-2.140655517578125,-0.050689697265625,2.242383768375591,-0.7722874213509882,-6.506279909592179
20.247312791645527,-1.441329956054688,-1.883453369140625,-0.116546630859375,1.32550534196093,-2.475422880614647,-0.7491120609129006
20.30669179162942,1.579208374023438,-2.422744750976562,-1.454452514648438,-1.707130467214887,4.463383951094499,-1.556156397650513
20.366077791666612,-0.154327392578125,-1.026351928710938,0.5525970458984375,0.05339318406278063,-1.558299177063591,2.484775636046896
20.425448791589588,0.0949554443359375,-0.993682861328125,0.2578582763671875,-0.1404252884865701,0.8089908411783513,0.6124290463901099
20.48480079160072,0.154754638671875,-0.8215484619140625,0.4713897705078125,-0.2345094434768895,0.3776338457282549,1.673451066805309
20.54419079166837,0.2397918701171875,-0.9640350341796875,0.3128204345703125,-0.3762007987456832,0.299258612743877,1.166881075849195
20.603570791659877,0.0433807373046875,-0.9203338623046875,0.326904296875,-0.4405939033749272,0.2017624157649481,1.29476873455589
20.662932791630737,-0.10723876953125,-0.977996826171875,0.2821197509765625,-0.4450158160488947,0.3854409024638222,1.157370927596522
20.722314791637473,0.0542449951171875,-1.15521240234375,0.302734375,-0.4559608754969024,0.5428411797385574,1.050105190474746
20.781687791575678,0.2128753662109375,-1.2508544921875,0.3778228759765625,-0.8008093439935189,0.6769499827516776,1.931029876908901
20.841032791649923,0.8181610107421875,-1.8404541015625,0.4741973876953125,-1.634251466088215,1.301606666970777,2.730635472089704
20.900392791605555,-0.08587646484375,-1.4796142578125,0.7546844482421875,-1.558583602668011,0.3845918867083049,4.808634024283499
20.959754791576415,-0.9802703857421875,-0.0984649658203125,-0.021759033203125,-0.4884301355071485,0.6518864411007239,2.938727955449661
21.019127791631036,0.1406402587890625,0.0083160400390625,-0.1910247802734375,0.1303846385447534,0.5289368156872537,-2.404049897084415
21.078501791576855,-0.055419921875,-0.33062744140625,0.02142333984375,1.592133573448612,-1.566192253902368,-3.84266768002428
21.137882791575976,-0.2046356201171875,-0.8635711669921875,0.2934112548828125,1.944462328815042,-1.724869516919796,-4.979133858328116
21.19726079166867,-0.413848876953125,-1.631072998046875,0.385528564453125,1.940035089818895,-0.9757329549248664,-6.304853318440689
21.256631791591644,-0.4568634033203125,-1.959976196289062,-0.158935546875,2.324883705256283,0.703646841099177,-4.998287312887967
21.31600579165388,-1.026336669921875,-1.690582275390625,0.2510833740234375,-0.3440628359750431,-2.509893506184088,2.997127349729573
21.37538829166442,0.29498291015625,-1.814300537109375,0.1221771240234375,-0.620900029185434,0.924801863289864,-1.860895529601664
21.43479329161346,-0.338226318359375,-0.83392333984375,0.7652587890625,0.1955383419813239,-3.043554503329033,2.904138286579494
21.494162291637622,0.30841064453125,-0.9852447509765625,0.227203369140625,0.02439135979181773,2.2728415428145,-0.5697385741161397
21.553531291661784,0.058685302734375,-0.84368896484375,0.4219970703125,-0.1813506175900358,0.5069220608522227,0.9248535286150116
21.61300829157699,0.3014678955078125,-0.9075164794921875,0.358856201171875,-0.2933466614400101,0.7064580739458646,0.984422050613468
21.67238829168491,-0.150543212890625,-0.9866180419921875,0.300079345703125,-0.3373495394991713,-0.02460414636291506,1.444408560414134
21.73177029157523,0.0548858642578125,-1.018875122070312,0.284820556640625,-0.476044838541626,0.3560957967283481,1.192854885960738
21.791130291647278,-0.0036468505859375,-1.128082275390625,0.3876495361328125,-0.5385321850948092,0.2304137680364566,1.500125618844118
21.850508291623555,0.0366058349609375,-1.298019409179688,0.426971435546875,-0.9917952784074613,0.4085534123001839,2.39756829562338
21.909886291599832,0.8845672607421875,-1.886749267578125,0.3911590576171875,-1.447230445905182,1.191781632041436,2.507029542747817
21.969262291677296,-0.0886383056640625,-1.373184204101562,0.70648193359375,-1.753162674024689,1.256208558816523,3.694654512959857
22.028655291651376,-0.713043212890625,-0.1668243408203125,0.2175445556640625,0.01351554253215213,1.854785439112695,2.28401962885789
22.08803029160481,0.0175628662109375,-0.078155517578125,-0.1397247314453125,0.03309084180867056,0.5683779651152182,-1.329037226198593
22.147408291581087,-0.1342926025390625,-0.365966796875,-0.0007171630859375,1.445476488011256,-1.182299446980208,-3.124291161251985
22.20679229160305,-0.174957275390625,-0.863983154296875,0.1427001953125,1.888327154093916,-1.220383449516669,-5.261859833340891
22.266176291625015,-0.2768707275390625,-1.458602905273438,0.189605712890625,1.877025763692056,-0.9504385172074028,-5.742366531972835
22.32555829163175,-0.458465576171875,-1.886947631835938,0.1650543212890625,1.781884866381193,-0.1182403576578831,-5.983958386052682
22.384937291615643,-1.178619384765625,-1.636138916015625,-0.1787872314453125,0.6287291901580488,-0.4565917783591422,-0.8473890967234408
22.444316291599534,2.497940063476562,-2.119979858398438,-1.029678344726562,-0.6595217239459811,-1.89480635870997,2.758893741784317
22.503699291613884,-0.276092529296875,-0.9639129638671875,0.9994049072265625,0.08143893350240509,-1.148940424849767,3.25944552130907
22.563075291574933,-0.2634429931640625,-0.853485107421875,0.1764373779296875,-0.379520162728358,-0.1484275549300402,1.606705858301307
22.622463291627355,0.2780914306640625,-0.8623504638671875,0.51739501953125,0.09467803991340699,-0.1051392029913473,1.252570947083584
22.681851291679777,0.2764129638671875,-0.942657470703125,0.3188629150390625,-0.2702400105580466,0.4314081281430259,1.249678754139758
22.741206291597337,-0.0359649658203125,-0.9338531494140625,0.3148040771484375,-0.3936189375392375,-0.2103649587181221,1.565812487130922
22.800593291642144,-0.0921783447265625,-0.93572998046875,0.274383544921875,-0.3933339793025991,0.5036072242434011,1.080412496312066
22.859989291639067,-0.0734405517578125,-1.002273559570312,0.3309783935546875,-0.3847309037172071,0.5169912066177033,1.03443515062072
22.919379291590303,0.130462646484375,-1.17376708984375,0.25372314453125,-0.5703404485224975,0.7330750374606615,1.503092380298466
22.978762291604653,0.097412109375,-1.549819946289062,0.3483428955078125,-1.123601512342099,0.9501136115544131,2.562076017215319
23.038147291634232,1.219070434570312,-1.889678955078125,0.436676025390625,-1.567425830119292,1.935376954756237,2.573382733939359
23.09753429167904,-0.1529693603515625,-0.7642822265625,0.403472900390625,-1.764199878846413,1.013476605474015,4.36351487758431
23.156920291599818,-0.305938720703125,0.007659912109375,0.2518463134765625,-0.3414097948971061,1.154531731558388,1.057266963278187
23.216304291621782,-0.0343170166015625,0.087554931640625,-0.0799560546875,0.6331223406922436,-0.9309079590371977,-3.085873997263155
23.27571129158605,-0.11456298828125,-0.2451934814453125,0.0957183837890625,1.488748062035081,-0.8805920576140036,-3.84175261787373
23.335105291684158,-0.16796875,-1.234359741210938,0.0622100830078125,2.366441801434752,-0.6458674307210358,-6.464980672671666
23.394497291650623,-0.607391357421875,-2.039230346679688,0.0230560302734375,1.834394413594286,0.4321785806463858,-5.958029317047452
23.453883291687816,-1.011871337890625,-1.9002685546875,-0.3046112060546875,1.929226916850917,-0.0006114617862821931,-3.780905778552035
23.513276291661896,0.38714599609375,-1.479263305664062,1.046676635742188,-0.7357648301616415,-1.515896326187349,3.174642482717676
23.57265829166863,-0.88726806640625,-0.84033203125,0.1381072998046875,-0.06673455585964158,-0.9987035182751268,4.837382848250905
23.632046291604638,-0.6791534423828125,-0.705413818359375,0.591156005859375,-0.3462695312542827,1.032096628867522,1.148151063902668
23.691433291649446,0.659820556640625,-1.116058349609375,0.3434295654296875,-0.02150023211242771,1.589152697240486,-0.1603728976834816
23.750809291610494,-0.1127777099609375,-0.9352264404296875,0.434844970703125,-0.06809702907332613,-0.3278372607176263,1.122780193461919
23.810190291609615,0.0084686279296875,-1.062789916992188,0.2265625,-0.1706079583848742,0.7490774398187297,0.7974766642053936
23.869563291664235,-0.09149169921875,-1.055801391601562,0.2461090087890625,-0.2838636774304559,0.2388003286252251,1.210227218383543
23.928958291653544,0.190032958984375,-1.17706298828125,0.299468994140625,-0.4202153947136408,0.7120296732624193,1.334982467016086
23.988335291622207,0.102935791015625,-1.300704956054688,0.4392242431640625,-0.9227272608006923,0.6053559568509684,2.32827763774948
24.04769529157784,1.000732421875,-1.616302490234375,0.1159515380859375,-1.356361791615024,1.479386784487344,2.258741969055293
24.107082291622646,-0.17877197265625,-1.23248291015625,0.49871826171875,-1.08907682460253,0.05635142340164065,4.126034944227546
24.166454291669652,-0.13836669921875,-0.5287933349609375,0.3368377685546875,0.5256057337957826,1.948896492030024,1.193870615600494
24.225852291681804,-0.04632568359375,-0.16925048828125,-0.1969451904296875,0.6070510588848038,1.228228323139715,-1.853010442246158
24.285243291640654,-0.0485076904296875,-0.5188446044921875,-0.0479888916015625,2.269073436188147,-0.1526526599994509,-3.433717989353893
24.344638291629963,-0.08056640625,-0.9842071533203125,0.004547119140625,2.526621886255312,-1.131682874669945,-5.469324875948026
24.404015291598625,-0.5108795166015625,-1.502670288085938,0.085052490234375,2.280750332303708,-1.407174638897627,-5.954582653964671
24.463374291663058,-0.6530303955078125,-1.781448364257812,-0.0795440673828125,2.134671685455118,-0.6462706333100737,-5.13270930364528
24.522771291667596,-0.96331787109375,-1.399520874023438,-0.1451416015625,0.3298484799728541,-1.180915135845585,0.4171586184144479
24.582157291588373,0.195159912109375,-2.327117919921875,-0.323883056640625,-1.105268311397994,4.143330843927066,1.173162407596256
24.641542291617952,-0.0468292236328125,-0.965972900390625,0.722991943359375,0.3590313991979424,-1.074850484375435,2.472123490340148
24.700926291639917,0.20721435546875,-0.9872589111328125,0.199615478515625,-0.2073888761999585,0.6183511177061191,0.7797155102634372
24.760308291646652,0.0176544189453125,-0.80718994140625,0.6658477783203125,-0.05180327689200333,0.2378522432771569,1.303079395053591
24.819675291655585,0.25970458984375,-1.0106201171875,0.3108062744140625,-0.4657565146184319,0.7044873347392059,0.8212805306607399
24.87905029160902,-0.0415191650390625,-0.96417236328125,0.3631134033203125,-0.4073688382473166,0.4543059871955272,1.026588945417129
24.938428291585296,0.1400604248046875,-1.110031127929688,0.2009429931640625,-0.5083367320232728,1.174974955034163,0.7862248085998089
24.997823291574605,0.1156768798828125,-0.99658203125,0.3464813232421875,-0.5503736645657376,0.8599749297190462,1.077473431733055
25.057201291667297,0.147003173828125,-1.082778930664062,0.3034820556640625,-0.7771492882370369,0.4839134142983741,1.855359882959825
25.116581291658804,0.632354736328125,-1.59857177734375,0.3213653564453125,-1.36258027276036,0.8159310389790978,2.322551308773592
25.175958291627467,-0.1018524169921875,-1.526168823242188,0.622161865234375,-1.838705006134688,1.058802541962727,2.717230184426681
25.23533529159613,-0.7217254638671875,-0.7079010009765625,0.2006378173828125,-0.4815208303750469,0.3590676181887675,3.474911765095238
25.29471429158002,0.006744384765625,-0.2539215087890625,0.095703125,-0.2716173974738356,0.9059647922675156,-0.1284368025234694
25.354090291657485,-0.2493896484375,-0.244598388671875,0.032958984375,0.1030073425387388,-0.3325462621571044,-2.273045807270109
25.413477291585878,-0.232391357421875,-0.4928741455078125,0.1835174560546875,0.4210100819829205,-1.01449526459097,-3.362184949842147
25.47285529167857,-0.3238525390625,-0.796905517578125,0.3464508056640625,0.9641122515083057,-1.859286713987147,-4.649811618986662
25.532206291682087,-0.45068359375,-1.299423217773438,0.5412750244140625,1.853398198500873,-0.9594160332420599,-5.440628782570204
25.591594291618094,-0.2954559326171875,-1.737350463867188,0.4497833251953125,1.870437635787418,0.6339820090921211,-5.952777563377816
25.650960291619413,-0.274688720703125,-1.545394897460938,-0.500396728515625,1.784188500724112,2.026992359416053,-2.200229124112945
25.71034729166422,2.353515625,-0.76251220703125,0.837249755859375,0.0710909547707932,-1.314618339424686,1.319198443867405
25.769727291655727,-0.33245849609375,-0.814453125,0.405487060546875,0.1451353551904843,-2.912445484967778,2.692685959188293
25.82911429158412,-0.31146240234375,-0.8312835693359375,0.399169921875,0.1114793905984989,-1.004300151305928,2.071516950732761
25.888492291676812,0.4139251708984375,-0.9615936279296875,0.5116424560546875,0.001587776641905242,0.8897597233504924,0.5423207980615559
25.947869291645475,0.18408203125,-0.854339599609375,0.4870147705078125,-0.3108670656194233,0.7926446247235539,0.6285182677997145
26.007246291614138,0.1868743896484375,-0.837860107421875,0.4360504150390625,-0.4288898430162469,0.5990269545203951,0.6806965177732011
26.066630291636102,0.029022216796875,-0.951324462890625,0.270263671875,-0.5656405018307258,0.5204602402536405,0.8829545478170129
26.126012291642837,0.083038330078125,-0.9476470947265625,0.355804443359375,-0.6094095543461781,0.4996801268999702,0.9215357625289908
26.18538729159627,-0.01287841796875,-1.092086791992188,0.3547210693359375,-0.6479353753074824,0.2444592796255345,1.124722703161022
26.244768291595392,0.3246307373046875,-1.357192993164062,0.1508636474609375,-0.9503724708123689,0.7821520363447507,1.760321251034822
26.30415129160974,0.5179443359375,-1.793624877929688,0.56378173828125,-1.519813836150856,0.939859376093172,2.711230082490732
26.363532291608863,0.3091278076171875,-1.909454345703125,0.5200653076171875,-2.010162512907297,2.002124293789111,2.764301556693832
26.4229021249339,-0.450653076171875,-0.579437255859375,0.06982421875,-0.9979290710301318,0.138773063346285,3.619931539094413
26.482277125003748,0.00787353515625,-0.2245635986328125,0.159698486328125,-0.3603981334693711,-0.9403374135088413,-0.9821471784103223
26.541659125010483,-0.167816162109375,-0.2247161865234375,0.204498291015625,0.6979522037402605,-1.499264086231477,-3.664752540240447
26.60103512497153,-0.2031097412109375,-0.5972747802734375,0.2360687255859375,0.9314730818205126,-1.107688592196657,-4.974691172997646
26.66040912491735,0.0503997802734375,-1.236358642578125,0.21533203125,1.969176996363196,-0.4067459248683471,-6.229042709586057
26.7197841249872,-0.4261932373046875,-1.663681030273438,0.2257232666015625,2.430071111463361,0.09340238575125905,-5.736569895544169
26.779155124910176,-1.136978149414062,-1.833511352539062,-0.5465850830078125,1.025670154841051,-0.2814239555558343,-0.9695829170195465
26.838530124980025,2.064682006835938,-0.2458343505859375,1.534881591796875,-0.62493844666243,-1.742248507245326,3.085524057895919
26.897888124920428,0.06488037109375,-0.6266021728515625,0.1669921875,0.06242449595145734,-1.062115248042677,3.705090908639659
26.957265125005506,-0.7408294677734375,-0.84271240234375,0.4053802490234375,-0.3509929137636472,0.02011139360395138,1.450304266435352
27.016662125010043,0.7128143310546875,-0.9527435302734375,0.558319091796875,-0.1097073232091602,1.896855927484895,0.1271819210178241
27.076028125011362,0.265533447265625,-0.82525634765625,0.26409912109375,-0.6073701055833953,0.7382274552216378,1.107569282579822
27.13540812500287,0.0309295654296875,-0.9612884521484375,0.337615966796875,-0.3562904738040329,0.4615332737617842,1.141650287681784
27.19478512497153,-0.136444091796875,-1.004058837890625,0.270782470703125,-0.5313752059813303,-0.0610082268837532,1.588616070280835
27.254150124965236,0.0050811767578125,-1.235092163085938,0.1932373046875,-0.5708661565216793,0.5898270645347163,1.280833477835941
27.31352212501224,0.2526397705078125,-1.20037841796875,0.2483673095703125,-0.9101528793977742,0.7678948034490115,2.087728677552509
27.372890124912374,0.51446533203125,-1.831680297851562,0.63433837890625,-1.217563694554493,0.6676337126263624,2.666409081344699
27.432242124923505,0.515625,-2.062225341796875,0.5677490234375,-2.235759421480128,1.601140384255259,3.122498853838361
27.49161212495528,-0.7071075439453125,-0.7098388671875,0.2685699462890625,-0.484146707209865,0.2577236860668922,3.548509819716232
27.55095912492834,0.11444091796875,-0.197265625,0.068878173828125,0.1548090215340881,0.6242715911254743,0.4877627473379746
27.61035412491765,-0.0328369140625,-0.219512939453125,0.0114288330078125,1.292958850279072,-0.2603093491692501,-2.837148067255205
27.66972712497227,-0.1346588134765625,-0.6070709228515625,0.1325531005859375,1.88683631651569,-0.8753672018713772,-5.537471439817627
27.729103124933317,-0.04541015625,-1.3468017578125,0.2532501220703125,2.681204006464525,-0.755609907656585,-6.635232832734905
27.788473124965094,-0.5640106201171875,-2.2462158203125,-0.026214599609375,2.811556154443979,-0.1765268339075753,-6.585067932545519
27.84785112494137,-1.615585327148438,-2.455245971679688,0.0378875732421875,0.8020359959916094,-1.21649603327348,-0.8165406365526169
27.907228124910034,0.340423583984375,-1.520751953125,-0.2769775390625,-0.5610870289989083,1.862092886827764,3.651220486109537
27.966608125017956,-0.2830963134765625,-0.8466796875,0.8063201904296875,0.2945402902405836,-2.117399221573191,2.782047264301466
28.025986124994233,0.4867401123046875,-0.9857940673828125,0.2798919677734375,-0.07310057612936699,1.950394520143194,-0.1771731831041375
28.085360124940053,-0.0469818115234375,-0.73101806640625,0.591033935546875,-0.4157897536141472,0.08527708126542728,1.711766498040497
28.144741124939173,0.3480987548828125,-0.9914093017578125,0.207305908203125,-0.4470350247873928,0.6273736411631985,1.000145353689296
28.204115125001408,-0.065673828125,-0.9124603271484375,0.3682861328125,-0.4467138475599293,-0.178297836032478,1.56969750652913
28.263490124954842,0.0220794677734375,-1.047805786132812,0.3088531494140625,-0.4883049669359147,0.4640076167305768,1.136231820127909
28.322865124908276,0.158050537109375,-1.175155639648438,0.42840576171875,-0.5942215466494561,0.3608862908971826,1.214064833514347
28.382246124907397,0.2558441162109375,-1.28057861328125,0.296234130859375,-0.941740633087204,0.7973251303393681,1.675951775068893
28.441602124948986,0.7855682373046875,-1.692428588867188,0.5290679931640625,-1.663573402322205,1.14668472740647,2.499964709008054
28.500989124993794,0.15875244140625,-1.89630126953125,0.654876708984375,-2.08861977125325,1.622299731748157,2.919813120123482
28.560363124939613,-0.412841796875,-0.591094970703125,0.004302978515625,-0.6947329746145727,0.2783911477064521,3.288103797799412
28.61973312497139,0.2910919189453125,-0.27532958984375,0.062103271484375,0.1501767191340043,-0.1870058401648191,-1.651077850487553
28.679109124932438,-0.1176300048828125,-0.338134765625,0.126495361328125,1.382593395720087,-1.704236942690516,-3.420212034201665
28.738486125017516,-0.1576690673828125,-0.75164794921875,0.2066497802734375,1.468693926394567,-1.906025723750256,-4.83985639227137
28.79786312498618,-0.2376708984375,-1.339431762695312,0.4283447265625,1.87279133755883,-1.482122649875182,-6.282243613418134
28.85723512491677,-0.7413177490234375,-1.965042114257812,-0.0457916259765625,2.464677291932287,0.912938279581888,-5.802087919417862
28.916617124923505,-1.754058837890625,-1.869400024414062,-0.179046630859375,1.89551768903713,-0.470198401000575,-2.45402464757197
28.97599912493024,0.4397125244140625,-1.979156494140625,-0.3586578369140625,0.3425634762813284,-2.101712936436515,-1.239744630641545
29.035381124936976,-0.1312713623046875,-0.7237548828125,0.84173583984375,0.2298478463048148,-1.661485484027583,2.166226415947031
29.094766124966554,0.3109588623046875,-0.9674835205078125,0.0170440673828125,0.05371223076137212,1.533740837071425,0.08969420024943271
29.1541271249298,0.05938720703125,-0.838226318359375,0.5997467041015625,0.03492735769638921,-0.3649558673589327,1.28738645201419
29.213528124964796,0.3262176513671875,-0.9639129638671875,0.2428131103515625,-0.4499623714576079,0.9204417359531863,0.9798563272406361
29.272906124941073,0.013641357421875,-0.87969970703125,0.374847412109375,-0.419851606908736,0.1001806633577287,1.470706743546448
29.332283124909736,-0.031463623046875,-0.983428955078125,0.26324462890625,-0.447241686087983,0.3791108348688129,1.283215941747126
29.391668124939315,-0.017333984375,-1.173721313476562,0.3934478759765625,-0.5757770255717853,0.2244309766475936,1.410638612527493
29.45105212496128,0.19970703125,-1.36090087890625,0.3683624267578125,-1.004324386071848,0.6687453160653615,2.137809954483667
29.5104331249604,0.9688262939453125,-1.898834228515625,0.641937255859375,-1.748887767842893,1.86827621424671,2.856501791529029
29.569801124976948,0.1514739990234375,-1.678070068359375,0.8107452392578125,-1.911401314410581,1.768232437369011,3.266835260701821
29.629189124912955,-0.9055328369140625,-0.1525726318359375,-0.1354827880859375,-0.0008799084241621803,2.213539336925051,2.359997484228978
29.688550124992616,-0.0539703369140625,-0.15618896484375,-0.0937347412109375,0.4228226294208284,0.194566288183445,-0.5679420056447723
29.747938124928623,-0.1339263916015625,-0.3813018798828125,0.079010009765625,1.490991508937364,-1.248804970986103,-3.18109478940672
29.807312124990858,-0.1977081298828125,-0.8701934814453125,0.1988983154296875,1.980857088272065,-1.526925541525803,-5.658147258292387
29.866680125007406,-0.6522674560546875,-1.47283935546875,0.4929962158203125,2.134404836713892,-1.276029135229438,-5.95183427171971
29.92604712501634,-1.218917846679688,-1.952774047851562,0.044158935546875,2.34714400354382,0.3777832490654083,-5.562806623899768
29.985432124929503,-0.54034423828125,-1.856887817382812,-0.2361602783203125,0.517349934416537,-0.003071690001297393,0.191071688201043
30.04480412497651,0.3552703857421875,-1.115249633789062,0.25640869140625,0.8245535556404473,-2.193884675448049,4.545071623842717
30.10417312500067,-0.7288970947265625,-0.756866455078125,0.9962005615234375,0.9206915404634357,-2.177856174111298,4.102591137151578
30.163526125019416,0.810821533203125,-0.95599365234375,0.1639556884765625,-0.2047230519487892,1.827091226936961,0.01385589451946426
30.222917124978267,-0.04400634765625,-0.805389404296875,0.4319305419921875,-0.2436600649824017,-0.04081134580881027,1.324184414060251
30.282266124966554,0.0489654541015625,-0.9162139892578125,0.420989990234375,-0.2096658789319763,0.5922838306403145,0.8354288402678949
30.341643124935217,-0.07452392578125,-0.9490509033203125,0.3621673583984375,-0.3657825125612933,0.9064249865038813,0.7423545559629336
30.401013124966994,0.1229400634765625,-0.9969329833984375,0.291290283203125,-0.4088729916309934,1.021632802628491,0.6589890917279652
30.460387124912813,-0.0071258544921875,-0.97906494140625,0.4343109130859375,-0.4104176250632393,0.476987863883623,0.9463947734082265
30.519762124982662,0.0403594970703125,-1.222564697265625,0.227813720703125,-0.6486491024796236,0.8074134508646973,1.22936522660907
30.579154124949127,0.2125091552734375,-1.491470336914062,0.30438232421875,-1.045606578761384,0.9692345755489641,2.224011152647352
30.638530124910176,1.250106811523438,-1.85137939453125,0.178009033203125,-1.353929792907564,1.351730021847159,2.605503119846805
30.697901124949567,-0.0369873046875,-1.208251953125,0.8748321533203125,-1.747742075941941,0.1326461949424487,3.998043422238338
30.757273124996573,-0.7118377685546875,-0.0508880615234375,0.392333984375,0.1978995006037882,0.4497501175187286,2.050186095665662
30.816642125020735,-0.0512847900390625,0.00396728515625,-0.0082550048828125,-0.3800197717488569,-0.125363514625518,-1.223513729061948
30.87601312494371,-0.2448272705078125,-0.3603363037109375,0.319580078125,0.3084771448571862,-1.505326772453043,-4.127468257526226
30.93538612499833,-0.101165771484375,-0.582061767578125,0.38836669921875,0.5262827093448808,-1.483243041745778,-5.050679681013095
30.994756124913692,-0.184539794921875,-1.119186401367188,0.51617431640625,1.824515151214528,-1.950725018434473,-5.576799937531481
31.054113124962896,-0.6729736328125,-1.903228759765625,0.4046783447265625,2.002995946413894,-1.400777725959257,-6.16902890705334
31.113477124948986,-1.279144287109375,-1.958724975585938,-0.5901947021484375,1.77975167434804,1.533236966993182,-2.047689648459822
31.172865125001408,1.056015014648438,-3.173858642578125,-2.697433471679688,-0.4234367543682007,-1.683066942553258,-2.835044169994042
31.232238124939613,-0.5764923095703125,-0.8526153564453125,1.079696655273438,0.2108451266626634,-1.799235360883059,2.687896530283894
31.291609124979004,0.103912353515625,-0.96710205078125,-0.0746612548828125,-0.5455549408893481,0.07647799702380548,1.389901109751264
31.35098712495528,0.08221435546875,-0.8724365234375,0.5045013427734375,-0.002463424008323295,0.07691661965534154,1.262241950266098
31.410362124908715,0.32513427734375,-0.867279052734375,0.4649810791015625,-0.1961966754027915,0.3468783298794748,1.44996924077022
31.469732124940492,-0.0154266357421875,-0.9676971435546875,0.2849578857421875,-0.4278027406592766,-0.2163195205994302,1.723615434362477
31.52911012491677,-0.1468505859375,-0.9380645751953125,0.219390869140625,-0.5277868627285575,0.255029898624277,1.524374765833725
31.588486124994233,-0.1468658447265625,-1.254852294921875,0.3023681640625,-0.51711557624061,0.4984343001420312,1.539814708569569
31.647861124947667,0.2187347412109375,-1.245376586914062,0.387481689453125,-0.6647921197432478,1.050889225099666,1.608263807539003
31.70724012493156,0.8420257568359375,-1.930435180664062,0.618316650390625,-1.268928082498851,1.550283328498561,2.620406701939106
31.766614124993794,0.2147369384765625,-1.78948974609375,0.822998046875,-1.847284645902487,1.426411184083488,3.929362628254066
31.825987124932,-0.6639404296875,-0.5856781005859375,-0.0541534423828125,-0.06332997072208428,2.692687557084947,1.728998748189964
31.885365124908276,-0.18646240234375,-0.1774749755859375,0.014251708984375,0.33905183206795,-0.2335608254966032,-0.8350623893019
31.944742124993354,0.07373046875,-0.0857391357421875,-0.13287353515625,1.586569164667,-0.4034340177367245,-3.551716798300906
32.00412212498486,-0.1410369873046875,-0.6865081787109375,0.08282470703125,2.169071204623453,-0.9690388332088432,-4.488526322313719
32.06350512499921,-0.0817718505859375,-1.343490600585938,0.196929931640625,2.17467183239589,-1.119472281071931,-6.259456009234762
32.12288512499072,-0.6688995361328125,-1.966552734375,0.1405029296875,2.391905882513653,0.08145810826225366,-6.143629807105036
32.18226412497461,-1.55877685546875,-1.839874267578125,-0.3690643310546875,0.1324768178971197,-1.04988681126536,0.2674607356444399
32.24164112494327,2.717514038085938,-2.140548706054688,-1.441970825195312,-0.5699723996598487,-1.252287853059709,3.974434499174785
32.30101212498266,-0.301849365234375,-0.8257293701171875,0.80914306640625,-0.09933271286664749,-1.091720544616651,3.301365807395789
32.36037112493068,-0.622711181640625,-0.775787353515625,0.1389312744140625,-0.5382152689250898,0.2500846747961089,1.076746388755463
32.41975412494503,0.389556884765625,-0.890594482421875,0.5073699951171875,-0.05173296943922524,1.510629658815609,-0.03800810244539287
32.479146124911495,0.212493896484375,-0.9330902099609375,0.290252685546875,-0.4366279238795812,0.3498642660936717,1.101274635027311
32.53851512493566,-0.11181640625,-0.921112060546875,0.3328857421875,-0.4766381908324956,0.2507107839683865,1.41252679374036
32.59788812499028,-0.1166229248046875,-0.993743896484375,0.3259429931640625,-0.5011451318156228,0.4502542539130806,1.138509355492145
32.657273125019856,0.131744384765625,-1.190536499023438,0.2807769775390625,-0.6056901835677734,0.649805180708827,1.202344794189126
32.71665012498852,0.1058349609375,-1.254013061523438,0.32073974609375,-0.8975417463718129,0.5142910275884719,2.250417460119924
32.776028124964796,0.8005828857421875,-2.016693115234375,0.612396240234375,-1.788943841166557,1.694273524420312,2.627102421551784
32.835396124981344,0.047515869140625,-1.5723876953125,0.8448028564453125,-2.207494760198899,2.192066535371851,3.033918387556799
32.89475512492936,-0.8709869384765625,-0.4906463623046875,0.0343475341796875,-0.4642188054050201,0.8168506285035021,2.858042696535748
32.954129124991596,-0.0888671875,-0.1017608642578125,0.0516357421875,-0.07767748477877717,-0.9155689501066683,-1.819019984621258
33.01350712496787,-0.162994384765625,-0.09368896484375,0.0433349609375,0.5998951450357609,-0.9544593578212045,-2.874581459537359
33.072884124936536,-0.1134796142578125,-0.6712799072265625,0.058502197265625,1.493957205127276,-0.8238752485108041,-5.129983291953475
33.1322531249607,-0.1996002197265625,-1.278671264648438,0.24285888671875,2.212948381479163,-1.585725475233663,-6.106134096853374
33.191642125020735,-0.547210693359375,-1.805313110351562,0.2662811279296875,2.35146311819971,0.1168142348941456,-5.880761426444329
33.25101312494371,-1.197280883789062,-1.761825561523438,-0.4733428955078125,1.95998429691246,0.03119493742864316,-3.2919941435198
33.310387125005946,2.583984375,-0.2783050537109375,1.317474365234375,0.2229641075191779,-0.0913775843744718,2.384465010427972
33.36976012494415,-0.151947021484375,-0.4508819580078125,0.336151123046875,0.3783712750340978,-1.649061304910145,3.273628984642614
33.4291361249052,-1.450424194335938,-0.58184814453125,0.2431793212890625,0.04365134079527078,-2.647531530273781,3.549897326644164
33.48851212498266,1.017501831054688,-0.943634033203125,0.572784423828125,0.1724194405583461,2.023425321452001,-0.7321322784347735
33.54788512492087,0.0525054931640625,-1.001007080078125,0.2321014404296875,-0.2284038803617738,-0.1968454214443348,1.346165080433329
33.6072591249831,0.1307373046875,-0.9590606689453125,0.325103759765625,-0.3283091728627883,0.02926867301218884,0.9257909613187195
33.666615124908276,-0.032073974609375,-0.9300537109375,0.3725433349609375,-0.3745384535932558,0.142370461346764,0.722000548383676
33.72597212495748,-0.0312042236328125,-0.9108123779296875,0.14923095703125,-0.4945442207377524,0.4602706690889776,0.8282249895192305
33.78535912500229,-0.095489501953125,-1.086212158203125,0.3008270263671875,-0.541650214099074,0.6021796046188309,0.5164604386124505
33.84474412491545,0.0227813720703125,-0.901580810546875,0.0225830078125,-0.5025693903665972,0.2639834462091234,0.2484052854127049
33.90411512495484,-0.2151641845703125,-1.033340454101562,0.114715576171875,-0.2957072874302563,-0.1654819059186897,0.04965304062787335
33.96349112491589,-0.0929412841796875,-0.709625244140625,0.2271881103515625,-0.1388481644890252,0.08793917709107049,-0.440185907095927
34.022873124922626,0.053924560546875,-1.008193969726562,0.2315521240234375,-0.03394039019640584,0.2256179475454419,-0.3329340184118199
34.08224912500009,0.0316314697265625,-1.0289306640625,0.1690216064453125,-0.06634360381161795,0.1638661660853386,0.005622465693375288
34.14162112493068,0.011077880859375,-1.024139404296875,0.0345001220703125,0.02791525454621057,0.05087170314269361,-0.004811799457555168
34.201005124952644,-0.076873779296875,-0.8971710205078125,0.1989288330078125,0.08525684124114269,-0.2065100330402324,0.1057104510451693
34.26038512494415,-0.1111907958984375,-0.9027557373046875,0.2428436279296875,0.2231713014519861,-0.08497747564279337,0.07885247145172013
34.31976612494327,-0.0939178466796875,-0.9537200927734375,0.123443603515625,0.2759807206038214,0.04584045921131591,-0.008904012788570925
34.37914412491955,-0.00811767578125,-1.000350952148438,0.2790069580078125,0.3153779278737996,0.02963778713927383,-0.1472738735458179
34.438524124911055,-0.0107421875,-0.9520111083984375,0.1775665283203125,0.2408914427131554,0.03824831957571802,-0.1601944658904463
34.497909124940634,-0.089599609375,-0.9004058837890625,0.25262451171875,0.2063007085785521,-0.06145270846968743,-0.03120266059580439
34.55729612498544,-0.0042724609375,-0.9609222412109375,0.2616424560546875,0.1958509970932992,-0.02361478201795062,-0.08172229384238952
34.616673124954104,-0.0316314697265625,-0.9496307373046875,0.2372589111328125,0.1475215475271953,-0.09871006580378697,0.06191423428659816
34.67606012499891,-0.0680694580078125,-0.953826904296875,0.3268890380859375,0.1175513978838796,-0.1302482846969413,0.08996158162287667
34.73544112499803,-0.0374603271484375,-0.953399658203125,0.31365966796875,0.07558424016197489,-0.006899185119959275,-0.03399738184373354
34.794820124981925,-0.053955078125,-0.9476470947265625,0.30224609375,0.06095389839751559,0.05594449238707654,-0.02084083342652409
34.854201124981046,-0.0437164306640625,-0.9355316162109375,0.2984771728515625,0.01184680579310848,0.0285546795239386,-0.01096849526560035
34.91357912495732,-0.0720367431640625,-0.9587554931640625,0.29705810546875,-0.05410531333826782,0.04258181530149496,-0.009022257140970442
34.97295112500433,-0.0362091064453125,-0.938140869140625,0.2638397216796875,-0.1100098583089932,0.1470182100811703,-0.1135928752395858
35.03232712496538,-0.0264739990234375,-0.9440155029296875,0.3002777099609375,-0.1877885432091934,0.1447449357746786,-0.03579341768288298
35.091695124981925,0.1270599365234375,-0.9664306640625,0.293731689453125,-0.2490769346396229,0.2433732425330002,-0.07741436446307734
35.15106312499847,0.050872802734375,-0.98529052734375,0.29132080078125,-0.2582408719505855,0.1389365814372159,0.2477671920155219
35.210452124942094,0.038787841796875,-1.002120971679688,0.303192138671875,-0.4820918121127599,0.1292088529234834,0.6378893990434854
35.2698321249336,0.218597412109375,-1.273849487304688,0.386810302734375,-0.9242191636433547,0.6194219747804399,1.263287507310063
35.329216124955565,0.8042144775390625,-1.982894897460938,0.0771484375,-1.258232827561093,1.247099216307908,1.972491566655908
35.38859312492423,0.141387939453125,-1.323898315429688,0.5636444091796875,-1.042510387678058,0.6230678423127584,3.462144038197181
35.44795712491032,0.2210540771484375,-0.1962432861328125,0.510528564453125,-0.08876582229343109,-0.3029026160634324,2.144693693269304
35.5073571249377,0.271759033203125,0.0178985595703125,0.202911376953125,0.4678731950528268,-0.03374251732741296,-3.09051961546869
35.56672612496186,0.1558685302734375,-0.1983489990234375,0.1095428466796875,1.196625389432072,-0.3465654084513905,-4.593910802441463
35.62609612499364,-0.1524658203125,-1.472061157226562,0.0628814697265625,2.687543927755568,-1.005514020130786,-6.65912032244848
35.685466124909,-0.6592254638671875,-2.476486206054688,-0.0848388671875,1.855412613549409,-0.9161449918504525,-4.865519145167592
35.74484112497885,1.4256591796875,-0.570098876953125,1.887161254882812,1.143911844079479,-2.461131825573064,0.4583103162105703
35.804211125010625,0.3719940185546875,-1.07794189453125,0.1333465576171875,-0.4077949440217293,2.111442262846902,1.843972206138647
35.86358012491837,-0.5455322265625,-0.73828125,0.36932373046875,-0.2081894224236364,-1.549733119417351,1.916434156238612
35.92295312497299,0.7337799072265625,-0.9550018310546875,0.43756103515625,-0.007595335428905987,0.287630985108482,0.6928559786782849
35.98232312500477,0.1756744384765625,-0.903228759765625,0.4251861572265625,-0.06900996069500528,-0.2754717905195072,1.278889370240183
36.04169512493536,0.0828094482421875,-0.9298095703125,0.346405029296875,-0.220580578343557,0.3164599702246988,1.000483575147736
36.10106412495952,0.053253173828125,-0.9679412841796875,0.2845458984375,-0.3350927767914382,0.4138781365836883,0.9236764114131966
36.16044012492057,0.1568756103515625,-0.929473876953125,0.27581787109375,-0.4601921058368203,0.5423692675933953,0.9946816123968892
36.21981512499042,0.101318359375,-0.9462432861328125,0.4441986083984375,-0.3933568824879737,0.2842229378615076,1.264035855576375
36.27918812492862,0.0160369873046875,-1.123321533203125,0.310699462890625,-0.7784254750314028,0.4245747231019916,1.751555722622935
36.33856412500609,0.2101898193359375,-1.875564575195312,0.42327880859375,-1.025935938317841,0.6044355683782371,2.187540759415371
36.39794237492606,1.068069458007812,-1.829696655273438,0.6910858154296875,-1.863644977111062,1.498317598780063,3.277296690095871
36.45730137499049,0.0587310791015625,-1.150970458984375,0.471954345703125,-1.874947432777358,1.428432523350858,3.908009402633811
36.516688374918886,-0.5204925537109375,-0.1593475341796875,0.1701812744140625,-0.676224005038522,1.908258518008178,2.330007094561378
36.57605937495828,-0.218505859375,-0.0050811767578125,-0.131439208984375,0.1093904070394407,-1.457760851171464,-1.793764695371819
36.6354473750107,-0.1394195556640625,-0.22344970703125,0.0216827392578125,1.56594457992099,-1.760169717168796,-4.286086132051346
36.69483237492386,-0.24591064453125,-0.8316650390625,0.1702880859375,1.946369684787757,-1.583732099157738,-5.362282311725599
36.754208375001326,-0.2385406494140625,-1.462921142578125,0.15594482421875,2.149642911839107,-0.7540514257866706,-6.15371146972764
36.813563374918886,-0.247528076171875,-2.013351440429688,0.0072784423828125,2.340514862958394,-0.7765135916848349,-4.890282814879803
36.87295137497131,-1.23260498046875,-1.570053100585938,-0.101531982421875,-0.1084955849131741,-2.228054097498201,0.9241499214550126
36.93234237493016,0.6149749755859375,-3.10040283203125,-1.901779174804688,0.733059591126339,-1.570208300826207,1.720974111193337
36.99170737492386,-0.4433441162109375,-1.232925415039062,0.7703857421875,0.1768434837611857,-0.3395117599882067,2.909472065610705
37.05110637494363,-0.1674652099609375,-1.194473266601562,-0.1194610595703125,-0.09152006349279104,0.693196596981706,-0.2198045332019079
37.110469374922104,0.3819580078125,-0.8266143798828125,0.5345916748046875,0.1452093910687885,0.5053912758576451,-0.4745039335349061
37.16984137496911,0.0489959716796875,-0.8445587158203125,0.3479156494140625,-0.2533129586695029,0.1183367640893439,0.8097261399553222
37.22922637499869,0.162811279296875,-0.9182891845703125,0.2610015869140625,-0.1836015213433708,0.4185019168682839,0.4109981941808766
37.28858437493909,0.11065673828125,-0.89984130859375,0.3299102783203125,-0.1062601274941616,0.09745891272366773,0.4167080115580065
37.34796237491537,0.1537628173828125,-0.953948974609375,0.341400146484375,-0.1275057614063777,0.1035426379178448,0.3761267628673791
37.40733737498522,-0.0097198486328125,-0.8829345703125,0.38525390625,-0.2144542425719388,0.1617015487513222,0.1931755854622056
37.46671137493104,0.2353363037109375,-0.963409423828125,0.2964935302734375,-0.2582712319870125,0.099350023413733,-0.02679832478503134
37.52608237497043,0.0923004150390625,-0.912078857421875,0.337249755859375,-0.241519948730414,-0.172819979986294,0.2011171318328219
37.58547637495212,0.03924560546875,-0.9264068603515625,0.2420196533203125,-0.1996854164307953,-0.1095960030755949,0.1556713530950558
37.6448543749284,0.1635894775390625,-0.9734954833984375,0.2903289794921875,-0.1502869740031336,-0.03343225906041872,0.01308943675773946
37.70423137501348,0.0764923095703125,-0.9170684814453125,0.250640869140625,-0.132220621800254,-0.02372024319711776,0.1579531495170357
37.763609374989755,0.0521240234375,-0.9359893798828125,0.23797607421875,-0.06943606646941797,-0.03132649758649307,0.1601981943159725
37.82298237492796,0.0722198486328125,-0.956634521484375,0.268585205078125,-0.07563537285490442,0.01123268084573621,0.165055267512059
37.88233437493909,0.0770416259765625,-0.9624176025390625,0.239105224609375,-0.06489590944305088,0.03136644500284426,0.1627063594306091
37.9417213749839,0.027435302734375,-0.9531707763671875,0.2781219482421875,-0.01962589933722994,-0.08357771817384772,0.1554684202199917
38.001092374906875,0.0736236572265625,-0.9727783203125,0.2754364013671875,-0.03236699462438703,-0.07270163459807312,0.1798581821151554
38.060477374936454,0.0198822021484375,-0.96234130859375,0.2531280517578125,-0.02022564321471578,0.008009723294522316,0.05852669338001737
38.119845374953,0.075836181640625,-0.9754791259765625,0.2670440673828125,-0.01883866891900252,0.07457942948268799,0.0172887091645764
38.17922837496735,-0.0240020751953125,-0.9576263427734375,0.2509918212890625,-0.0381737510651958,0.03978496352469374,0.04111334827642527
38.238605374936014,0.0098114013671875,-0.9419403076171875,0.2501220703125,-0.0430606516654912,0.1307329800153358,-0.008923720180637511
38.29797937499825,0.0298004150390625,-0.9561614990234375,0.2295074462890625,-0.03362933298108459,0.09896466400399855,0.006353769728711047
38.357350374921225,-0.0196990966796875,-0.94244384765625,0.2117156982421875,-0.07036710758650966,-0.0095921736142474,0.09387216736754903
38.41672437498346,0.0004730224609375,-0.9551849365234375,0.22784423828125,-0.04620318175178471,-0.08765421885443202,0.04464736304296042
38.476094375015236,0.014739990234375,-0.953094482421875,0.2293243408203125,-0.04091254593023329,-0.09740831266295623,0.02450534308647312
38.53545937500894,0.018310546875,-0.974334716796875,0.236114501953125,-0.06552121966700149,-0.121600734321345,0.04394695167626957
38.59482837491669,-0.0249786376953125,-0.9516448974609375,0.223541259765625,-0.0651824655763434,-0.05073188718546445,0.007990548534673746
38.654194374918006,0.0015411376953125,-0.96575927734375,0.2203826904296875,-0.0416321320567727,-0.03123302063223129,-0.06256298032814146
38.71356337494217,0.0046234130859375,-0.9586944580078125,0.225372314453125,-0.04471021364468628,-0.003453587301614756,-0.0458164907615052
38.77292837493587,-0.00946044921875,-0.962188720703125,0.213775634765625,-0.05432955150205249,-0.008512794424438285,-0.02018356526949253
38.83230637491215,0.046966552734375,-0.9622039794921875,0.21337890625,-0.04678162034054991,0.009291502727177454,-0.04702396799974713
38.891671374905854,-0.00457763671875,-0.9566802978515625,0.196990966796875,-0.06067373385083925,0.002194977370443308,-0.01284336067301613
38.95102937496267,0.001495361328125,-0.964447021484375,0.2086639404296875,-0.04357570702031253,0.01251552554282738,-0.04172853848823357
39.010417375015095,0.0127716064453125,-0.9578094482421875,0.2041015625,-0.02979810943689659,0.0009840380227842786,-0.01921097883939559
39.069791374960914,0.018951416015625,-0.964691162109375,0.20538330078125,-0.0286050132685411,0.02739007917924695,-0.03655614701908167
39.12916837492958,0.0301971435546875,-0.9655914306640625,0.19647216796875,-0.01377386915788982,0.01146624007333616,-0.02997813912658595
39.18854737491347,0.0223541259765625,-0.9610748291015625,0.2012786865234375,-0.01271020261851217,0.01148168640765862,-0.02784601235786852
39.24790437496267,0.0256195068359375,-0.9696197509765625,0.2049713134765625,-0.003260241806475003,-0.01717419323770299,-0.02113005272090669
39.30729137500748,0.0267181396484375,-0.9636688232421875,0.1945953369140625,-0.0159747054827313,-0.002179264720011841,-0.01170832141642436
39.36665937490761,0.0166778564453125,-0.9631195068359375,0.20159912109375,-0.006423011917053106,-0.008544752357519236,-0.007370032000685284
39.426028374931775,0.018524169921875,-0.963226318359375,0.2013702392578125,-0.01069152651223211,-0.009510414568781968,0.002231728993486402
39.485403375001624,0.0063629150390625,-0.9618682861328125,0.1954193115234375,-0.004352670485625507,-0.02127120025868089,-0.004030960625943935
39.5447743749246,0.0488128662109375,-0.96697998046875,0.1913909912109375,0.001082308667008203,-0.0003107908992122471,-0.03517077062002245
39.604148374986835,0.04052734375,-0.9620819091796875,0.195159912109375,-0.003380616687746585,-0.04486947067787302,-0.02935176363819932
39.66351937490981,0.00262451171875,-0.96868896484375,0.21173095703125,0.008059790723015806,-0.1031932311828263,-0.0127144636762563
39.72288037498947,0.03216552734375,-0.98114013671875,0.1934051513671875,0.01962376880835787,-0.1361700896968415,-0.01341114661742103
39.78226037498098,0.033203125,-0.971527099609375,0.192626953125,-0.02213939077404672,0.04435894269690483,-0.03780623483476486
39.84162737498991,0.0238037109375,-0.9716644287109375,0.21185302734375,-0.02818423381630858,0.120894197684147,-0.03545572885666093
