time,accelerometerAccelerationX,accelerometerAccelerationY,accelerometerAccelerationZ,gyroRotationX,gyroRotationY,gyroRotationZ
0.0,-0.1180572509765625,-0.9913482666015625,-0.051666259765625,0.03615241179782566,-0.009576460963815933,0.01078154135707679
0.059367000008933246,-0.073822021484375,-0.9793548583984375,-0.0751190185546875,0.02032844123279284,0.02343182285106218,0.01360768790586887
0.11873700004070997,-0.06304931640625,-0.986846923828125,-0.0717010498046875,0.04904743779598933,0.01009417947972734,-0.04379035780417291
0.17810699995607138,-0.0764923095703125,-0.9645843505859375,-0.0697479248046875,0.06723469751235846,0.02571388558915108,-0.07379938959940378
0.23747299995739013,-0.0030517578125,-0.9898681640625,-0.1072540283203125,0.1300469497185313,0.01876916041455145,-0.1173953366440009
0.29683400003705174,-0.0662384033203125,-0.9617919921875,-0.06298828125,0.3023044700826006,-0.02702815558710518,-0.07097590621170177
0.35618899995461106,-0.0557708740234375,-0.963226318359375,-0.0482940673828125,0.3875938018890422,-0.007444334195098494,-0.1105904274266304
0.4155460000038147,0.036865234375,-1.000946044921875,0.0207366943359375,0.445998522491134,-0.04272376178759618,-0.1155034270056086
0.47490200004540384,0.0249481201171875,-0.949493408203125,0.003143310546875,0.5340154638860348,-0.1066822385269392,0.01208542502677958
0.5342899999814108,-0.08001708984375,-0.930389404296875,0.0782012939453125,0.5494378297586837,-0.218629280212856,0.09433609002944082
0.5936389999696985,-0.0672760009765625,-0.94549560546875,0.082672119140625,0.5286955332924925,-0.1055852824739355,0.01420263809339258
0.6530209999764338,0.00653076171875,-0.9932098388671875,0.1602325439453125,0.4506345533167439,-0.1785692121475571,0.02456446526267288
0.7123859999701381,-0.060546875,-0.950408935546875,0.16448974609375,0.4459585750747828,-0.2641022231937409,0.08306452703178946
0.7717549999943003,-0.022979736328125,-0.9928741455078125,0.204193115234375,0.4214894509791348,-0.2620811502424798,0.06277869637643788
0.8310970000457019,-0.0748291015625,-0.965728759765625,0.27947998046875,0.3258537383377353,0.03260721175471218,0.1959181087527692
0.8904859999893233,-0.1114044189453125,-0.95220947265625,0.2118682861328125,0.104121609138828,0.2084578690615163,0.1821495659170596
0.9498509999830276,-0.0793609619140625,-0.921051025390625,0.297882080078125,0.08285520257010923,0.1965655232137675,0.02984711160095405
1.0092019999865443,-0.0269317626953125,-0.931640625,0.22857666015625,-0.0365636038701339,0.1494443498342325,-0.05389492361215156
1.068570000003092,-0.0616912841796875,-0.98272705078125,0.1795196533203125,-0.08161523476656833,-0.1526401431423276,0.01230486950060211
1.1279360000044107,0.02093505859375,-0.9882659912109375,0.2258453369140625,-0.01203695549494014,-0.04700532587211657,0.2094293902271772
1.1873060000361875,-0.0376129150390625,-1.013092041015625,0.2818603515625,-0.01538508161738776,-0.05003307371542766,0.4695408665274344
1.2466739999363199,-0.1172027587890625,-1.022216796875,0.275634765625,-0.0906076645033299,0.3090153697134913,0.8013030940596195
1.3060429999604821,0.02752685546875,-1.453033447265625,0.2706298828125,-0.315325729916434,0.5878299600332659,1.261788680248566
1.3654119999846444,0.390472412109375,-1.713272094726562,0.0286865234375,-0.5386424399639385,0.5552885283574788,2.445192540132831
1.4247749999631196,0.8562774658203125,-1.494049072265625,0.505706787109375,-0.4958789970761001,1.132668510589383,2.999506085215232
1.4841389999492094,-0.3461761474609375,-0.176849365234375,0.4882354736328125,-0.03372147835480133,-0.7481812861119179,4.945488013748273
1.5435029999352992,0.8849029541015625,-0.130218505859375,0.32440185546875,-0.1317812002203909,0.007561513283061981,-0.3955939378036403
1.6028680000454187,0.1927337646484375,-0.6837005615234375,0.217620849609375,0.03795111079806517,0.3288868125032265,-2.471169546037682
1.6622340000467375,0.1105804443359375,-1.204788208007812,0.2159423828125,0.5705732088017705,-1.488491599622107,-4.299141480347132
1.7215759999817237,-0.0804443359375,-1.694580078125,0.386077880859375,0.4360414958075458,-1.146253827942095,-4.695231298745745
1.7809669999405742,-0.44342041015625,-1.46209716796875,0.171875,0.6284490256113725,-0.4476840371450451,-4.202941177554636
1.8403199999593198,-0.2666168212890625,-1.332489013671875,-0.00958251953125,0.3085112333191393,-0.03132623127038407,-3.719501805930296
1.8996670000487939,-0.9253692626953125,-1.15350341796875,0.1280517578125,0.15709028532385,-0.6205948309245108,-0.3245748883822792
1.9590349999489263,-1.198699951171875,-1.152114868164062,0.240203857421875,0.08365255300047895,-0.9389480423681469,0.9089517937461484
2.018417999963276,0.6778106689453125,-2.39739990234375,-0.46551513671875,-0.4647327954954054,1.105220374498372,-3.652459388648641
2.0777699999744073,0.1903839111328125,-0.6096038818359375,0.838409423828125,1.52662833274815,-0.4553150589325582,2.523392537117481
2.137135999975726,0.1419830322265625,-0.802490234375,-0.005035400390625,-0.05347574205657309,1.346270008980278,1.820602434940983
2.1965220000129193,0.4874114990234375,-1.002471923828125,0.4225921630859375,0.3180986132434245,0.2049733890912567,0.2217262702445091
2.2558890000218526,0.16778564453125,-1.021728515625,0.239654541015625,-0.1035101473525458,0.3135459393599341,1.071985721990837
2.315258000046015,0.1982421875,-0.9086456298828125,0.3986968994140625,-0.1853389676385385,0.5537798475999488,0.8145469941605836
2.3746289999689907,0.250579833984375,-0.95751953125,0.309234619140625,-0.1892314438877983,0.3998067923320366,0.8226392754488984
2.433993999962695,0.1493988037109375,-1.003707885742188,0.2219390869140625,-0.05265655370526472,0.03614815074008153,1.19978017005938
2.493367000017315,0.109649658203125,-1.066314697265625,0.3890228271484375,0.08162961583645476,0.1458011454630041,1.878677456200123
2.552737999940291,-0.0073699951171875,-1.44781494140625,0.204315185546875,-0.1685285622057403,0.6734402027510622,2.233013702396256
2.6121089999796823,1.03399658203125,-2.45806884765625,0.1229400634765625,-0.5913346800278102,1.672647058472214,2.874123395829865
2.6714780000038445,0.40997314453125,-1.5572509765625,0.36090087890625,-1.207366450740579,0.8050014258654126,4.649604425053854
2.7308460000203922,0.0900115966796875,-0.2934417724609375,0.4037017822265625,-1.236767216542836,-2.547902141261699,-0.4414642244191651
2.7902089999988675,0.8956756591796875,0.0048370361328125,-0.0115814208984375,-1.206098253429484,1.824988394940235,-3.000954312216017
2.8495790000306442,0.1024017333984375,-0.935699462890625,0.2976837158203125,0.1032017532983146,-0.8354123286691364,-4.861898843981738
2.90894999995362,0.142669677734375,-1.652557373046875,0.5766754150390625,0.7067443637630481,-2.405298653319553,-5.821727667192761
2.9683209999930114,-0.591064453125,-1.929855346679688,0.664520263671875,0.8713458286253576,-2.235760753060672,-5.574100557450577
3.0276669999584556,-1.312057495117188,-1.575958251953125,0.3063812255859375,-0.1272250642274834,0.5914931381126699,-3.96533820615551
3.0870390000054613,-1.810531616210938,-0.96417236328125,-0.08477783203125,0.1081989087677393,0.07207419384525046,1.354014481430229
3.1464109999360517,1.55169677734375,-3.623794555664062,-2.5784912109375,1.105796149926047,5.685048913727714,-0.971416237113957
3.2057679999852553,-0.5711212158203125,-1.419876098632812,1.372848510742188,1.741339836681391,1.006672495204971,3.575395496185018
3.2651459999615327,0.0008697509765625,-1.114547729492188,-0.3504638671875,-0.9640856198974048,1.187423102601412,0.9596163029560338
3.3245030000107363,0.305755615234375,-1.06103515625,0.538726806640625,0.3103056712616347,-0.1326347433497613,0.004805940503156993
3.3838850000174716,0.0291748046875,-0.9306793212890625,0.069915771484375,-0.2492250063962313,0.8276665246386409,1.131265557327129
3.4432531249476597,0.1733856201171875,-0.9951019287109375,0.2995147705078125,0.0388123770945968,-0.01169926666871809,0.9839730416536806
3.5025921249762177,-0.0369415283203125,-1.07354736328125,0.3248291015625,-0.07013754310054483,0.205319333716858,1.464380670693074
3.561974124982953,-0.074462890625,-1.160858154296875,0.2869873046875,-0.07831770870483222,0.5349891155805677,1.618493009285998
3.6213391249766573,0.07208251953125,-1.497909545898438,0.2031402587890625,-0.3897094170590012,0.9531197877928946,2.064610308761749
3.6806871249573305,1.22283935546875,-2.500518798828125,0.6403350830078125,-0.8661270981532383,1.701437960384843,3.277653553681942
3.7400661249412224,0.2996063232421875,-1.930404663085938,0.4213104248046875,-1.2616240968932,1.804750234868395,3.049292283897609
3.799427125020884,0.0355987548828125,-0.1270751953125,0.317840576171875,-0.7958734412291659,-2.43941055109016,2.275590191375571
3.8587861249689013,0.6476287841796875,0.0919952392578125,0.091064453125,0.3337633267752706,0.6389591908533703,-3.481727859589187
3.918147125048563,0.2373809814453125,-0.74615478515625,0.0641937255859375,0.4923684181271576,-0.4508635851704907,-4.613341225754681
3.9775111250346527,-0.0139312744140625,-1.824569702148438,0.385498046875,0.8918100910737444,-1.767112045498415,-6.04079610266937
4.036872124997899,-0.587890625,-1.80548095703125,0.5811614990234375,0.6165857082195055,-1.587773712428043,-5.552589140061571
4.096233124961145,-1.40838623046875,-1.528594970703125,0.3564300537109375,0.1015101133738963,-0.3559224249413839,-1.66629142453074
4.155590125010349,-1.763778686523438,-1.123001098632812,0.0792694091796875,0.1806400862112027,-0.4302991878651169,1.033425279935362
4.21495212498121,-0.33795166015625,-2.601028442382812,0.2450714111328125,0.3126966572883078,1.744855209320295,-0.5861628211908764
4.274318124982528,-0.6540069580078125,-1.16259765625,0.9865264892578125,0.6172435090087551,0.736416505680384,2.779492760183861
4.33367012499366,0.0962677001953125,-0.5789337158203125,-0.310943603515625,-1.391636958149778,0.6013484320426172,1.101251731841936
4.393027125042863,0.154541015625,-0.9277496337890625,0.41400146484375,0.4105507831177433,0.1883507365153091,0.4180784742549613
4.452414124971256,0.29998779296875,-0.9669952392578125,0.1577301025390625,-0.2030287488632808,0.368126626952781,0.4754988905181597
4.511771125020459,-0.184051513671875,-0.994415283203125,0.271942138671875,0.219638351949887,-0.02058224048467739,1.245301049939886
4.571129124960862,0.0111846923828125,-1.031753540039062,0.2748260498046875,-0.05804466122271303,0.2731242140186024,1.325071246703247
4.630498124985024,-0.1497955322265625,-1.159469604492188,0.31097412109375,-0.1696689277845122,0.8326559569409043,1.729217660031568
4.6898711250396445,0.0258026123046875,-1.57977294921875,0.154693603515625,-0.3742337879645508,1.05429460918555,1.854584903082612
4.749241124955006,1.258575439453125,-2.496063232421875,0.7941131591796875,-0.8292385886301147,2.067259887730269,3.08603645008965
4.808607124956325,0.4323272705078125,-1.567153930664062,0.453216552734375,-1.608391639271327,1.09845354848459,4.414879265528667
4.867974124965258,-1.047225952148438,0.2122955322265625,0.2118988037109375,-0.4019397180490811,1.772025045077393,5.920524019415866
4.927342124981806,0.5293731689453125,0.002105712890625,0.254608154296875,0.678274106445665,1.614270301061568,-4.33758580857908
4.986703124945052,0.2533721923828125,-0.7431488037109375,0.0238800048828125,0.5469014351364923,-0.4608123560546998,-5.124838064727442
5.046079125022516,-0.10906982421875,-1.494003295898438,0.301849365234375,1.098172052357368,-0.6481830492888597,-6.193743041969275
5.105447125039063,0.0225830078125,-2.129287719726562,0.4095916748046875,0.8730172285254912,-0.6001398895399392,-6.852038646549384
5.16480812500231,-1.256790161132812,-2.271484375,0.3101654052734375,0.6434655257338933,-0.1370289591483921,-3.785330887019311
5.2241701249731705,-1.527114868164062,-1.244338989257812,-0.1119384765625,0.5895604821095994,-1.004877790946367,2.04829684918836
5.283530125045218,-0.5782623291015625,-1.063583374023438,0.5291595458984375,-2.93217551390363,-6.8420374113917,1.804070596158207
5.3428971249377355,-0.9333038330078125,-1.450057983398438,0.5615692138671875,0.4375861292397917,0.4881606236048325,2.151134814681769
5.402265124954283,0.1454315185546875,-1.048110961914062,-0.069427490234375,-0.01817234601426469,0.7156867260713161,0.1903531673389397
5.4616301249479875,-0.2516326904296875,-0.81561279296875,0.421478271484375,0.1614067368186504,0.2452076278918468,0.8810013854735488
5.520991125027649,0.1861114501953125,-0.99810791015625,0.18902587890625,-0.2219606284204361,0.178703169150388,0.4338779437379653
5.580349124968052,-0.044921875,-0.9678192138671875,0.1988525390625,-0.1291009948993352,0.3039590920678668,1.060354632246025
5.639709125040099,-0.1327056884765625,-1.053359985351562,0.23345947265625,-0.06522933721152879,0.3177364233351738,1.199865391214262
5.699058125028387,-0.0994720458984375,-1.355499267578125,0.2655029296875,-0.05122324040658407,0.6228590504832962,1.470442025334095
5.7584161249687895,0.008026123046875,-1.641098022460938,0.467254638671875,-0.3056760320226409,1.207300404345545,2.365626874141188
5.81777012499515,1.72998046875,-2.0970458984375,1.022506713867188,-0.682408930354122,2.924843032474315,2.550089129148872
5.877119124983437,0.1585845947265625,-1.217498779296875,0.9098052978515625,-1.650371580166464,2.844196389396209,4.051314100890974
5.936487124999985,0.2596282958984375,-0.1394195556640625,-0.24700927734375,-1.441909450047204,-5.390002090247797,0.8198440215687511
5.995868124999106,0.4058837890625,-0.120361328125,0.1376800537109375,1.155093924864504,-0.6449041653547541,-3.126091990781096
6.055237125023268,0.173431396484375,-0.6319580078125,-0.0102386474609375,0.5850384345786449,-1.356170044016539,-4.349625959867328
6.114599124994129,0.090484619140625,-1.339736938476562,0.17779541015625,0.9160235517047448,-1.349159538763014,-5.985705419727774
6.1739351249998435,-0.0117950439453125,-2.3271484375,0.44415283203125,0.7149128114585391,-1.631253013016894,-6.603041074110245
6.233314124983735,-1.757064819335938,-1.898193359375,0.65240478515625,0.7633242863862175,-1.316886021092889,-4.898914652604968
6.292671125032939,-2.063827514648438,-1.097610473632812,0.1950225830078125,-0.061034858494654,-0.7517083766596189,0.280069205509311
6.3520331250038,-0.0460662841796875,-2.912628173828125,0.44281005859375,-0.00960122836195367,4.217535832960488,-2.235893112166849
6.411398124997504,-0.758514404296875,-0.72747802734375,0.5781097412109375,0.3833125041206309,0.1869618980068328,3.530509513908387
6.470754125039093,-0.12200927734375,-0.728729248046875,-0.2306671142578125,-1.609803114649069,0.488145976218837,1.93166903557052
6.530116125009954,0.2418975830078125,-0.984832763671875,0.3075103759765625,0.2303080405411805,0.08071828211142965,0.07596187640454813
6.589476124965586,0.14727783203125,-0.958587646484375,0.0841064453125,-0.1673061712653939,0.699043567154975,0.1798081146866619
6.648835125030018,-0.1550140380859375,-1.000946044921875,0.41937255859375,0.1236441778257628,0.1004219457524899,0.5915903434924579
6.708201125031337,0.13861083984375,-1.084060668945312,0.3246002197265625,-0.0625608497992694,0.3908252815557444,0.8110726342024662
6.767563125002198,0.1404571533203125,-1.348831176757812,0.293121337890625,-0.1771955536572942,0.8247948380352085,1.799650281380894
6.826926124980673,0.2295684814453125,-1.788345336914062,0.402496337890625,-0.3637398680052025,1.648965164794793,3.160152223226556
6.886294124997221,2.011215209960938,-2.447784423828125,0.9891815185546875,-0.5843737095705611,2.100175493539212,3.410887241960862
6.945661125006154,0.1424713134765625,-0.6341705322265625,0.6977691650390625,-0.02825187810799659,0.4493320012275862,6.78481353641695
7.005027125007473,0.4178924560546875,0.154296875,-0.019805908203125,0.08875889807459689,0.6669431549557049,-3.038736578600971
7.064383125049062,0.701080322265625,-0.5696868896484375,-0.303131103515625,0.3828342003888526,0.362377128475409,-3.990285633982937
7.12374012498185,0.118560791015625,-1.275299072265625,0.1791839599609375,0.5949123706362227,-1.683096503641358,-5.647478634965529
7.183121124980971,-0.1100616455078125,-2.082046508789062,0.8379364013671875,0.5971909712648945,-2.191764000272018,-6.22597900906803
7.242495125043206,-1.26092529296875,-1.7471923828125,0.4228668212890625,0.8167611462908755,-0.01759710321880758,-4.28327702973353
7.301852124975994,-1.450607299804688,-0.950775146484375,0.07513427734375,-0.07440605769572384,-0.06988401016476929,-2.792988062691729
7.3612421250436455,0.1925811767578125,-2.2330322265625,-1.613601684570312,-0.1381956900219558,-2.531954600022086,2.124494681665489
7.420611124951392,-0.4986724853515625,-0.1917877197265625,1.460205078125,2.835213014407153,2.329257414714521,4.053761013300539
7.4799731250386685,-0.3486480712890625,-0.78741455078125,-0.0990142822265625,-1.02731865155581,-0.221285517084101,1.800134976699288
7.539328124956228,0.4097747802734375,-1.1539306640625,0.4997100830078125,0.5300409622752006,-1.45901306951602,0.03020077939371658
7.5987001250032336,0.0736846923828125,-0.996246337890625,0.2169342041015625,0.2058756680685755,0.433697115099949,0.9460943688372656
7.658072125050239,-0.04754638671875,-0.9382476806640625,0.311248779296875,0.01027713864661578,0.03395557021461929,0.9706652256865547
7.717429124983028,-0.0369873046875,-1.016433715820312,0.194366455078125,-0.1007921251440109,0.2290251958440893,1.248792986761198
7.776784125017002,-0.2266082763671875,-1.049224853515625,0.4055328369140625,-0.05491491430965191,0.7516380692068408,1.494601157478858
7.836174124968238,0.05010986328125,-1.429229736328125,0.1692352294921875,-0.2184319399760811,1.321343087493245,1.46478973223651
7.895529125002213,0.3414306640625,-1.903182983398438,0.50714111328125,-0.4894192335360039,1.835458346449772,2.816947990386954
7.954916125047021,0.86126708984375,-1.876968383789062,0.375732421875,-1.725397089131741,2.802346144446159,2.641554864155425
8.014270124956965,-0.123992919921875,-0.2227020263671875,0.3397369384765625,0.3807558694741548,-0.4130413713691854,7.207022040890406
8.073655124986544,0.926727294921875,0.064971923828125,0.083465576171875,0.1461963585687718,0.6551781082080618,-3.027920948781941
8.133024125010706,0.1286163330078125,-0.924224853515625,0.0318756103515625,1.326270201826001,-0.8623430125603446,-4.483701739682932
8.192378125037067,0.1690521240234375,-1.535400390625,-0.1682891845703125,1.118117531025408,-0.8871221286068779,-5.687992771996687
8.251760125043802,-0.2684783935546875,-2.135406494140625,0.5246734619140625,0.9721725748635395,-0.7102597364019527,-6.04602282262476
8.311118124984205,-1.220993041992188,-1.770217895507812,0.5551910400390625,0.8666687851189604,-1.200281376976533,-4.043169089013076
8.370474125025794,-2.297164916992188,-1.003341674804688,-0.4389801025390625,0.5738904422555732,-0.4484600822866942,-1.758849055584226
8.429882374941371,2.119537353515625,-4.300689697265625,-2.315811157226562,0.3460026825130568,-1.190756847653973,1.970291262963285
8.489234374952503,-0.208160400390625,-0.137298583984375,0.9492340087890625,0.4173951071192469,-0.4646678143648075,3.988590265632992
8.548608375014737,-0.1580352783203125,-0.4066314697265625,-0.3075103759765625,-1.11652496069354,1.118865080343393,0.7215398215150923
8.607992375036702,0.140960693359375,-1.14105224609375,0.419952392578125,0.6278183890652418,-0.5449591917534974,0.1033024207875196
8.66733937500976,0.1190185546875,-0.9955291748046875,0.2535400390625,0.04670119287562952,1.207956340922032,0.4961953806136015
8.72673037496861,0.004669189453125,-0.8131103515625,0.5538177490234375,0.07226274565042806,0.0835974255659143,0.9584216088910243
8.78609637496993,-0.1121826171875,-0.9627532958984375,0.2228546142578125,-0.2683427745974741,0.3540837785247932,1.034154986074044
8.84545837494079,-0.23370361328125,-1.074417114257812,0.3143157958984375,-0.1295366880536722,0.7018662515943499,1.24462886808075
8.904819375020452,0.140411376953125,-1.56689453125,0.3184967041015625,-0.5567631206530557,1.377526199113993,1.455484647387774
8.96418537502177,0.5654144287109375,-2.232681274414062,0.360626220703125,-0.8222435297109125,1.653733022094362,2.454259538380115
9.023550375015475,0.490386962890625,-1.966293334960938,-0.0309906005859375,-1.332350198594652,1.162427205242146,2.470100553176124
9.082917375024408,0.04864501953125,-0.2314605712890625,0.3643035888671875,0.05985081707400477,0.2400147300823013,1.588768935727405
9.142280375002883,0.9964599609375,-0.4050445556640625,-0.2421875,0.7431657548309717,0.3032395059413274,-3.339265785500924
9.20162237493787,-0.0128631591796875,-1.011062622070312,0.05767822265625,0.7801496055211201,-1.068253301723091,-4.404940348340492
9.261017375043593,0.067657470703125,-1.448272705078125,0.44512939453125,0.3954426702537238,-0.8817942085300654,-6.177637308960912
9.320338375051506,-0.519439697265625,-1.784774780273438,0.60467529296875,1.086265591755842,-0.7877337556734478,-5.025048353417737
9.379729375010356,-1.367950439453125,-1.784210205078125,0.3685760498046875,0.8361420348078181,-1.112331547241102,-3.958881638408722
9.439091374981217,-1.606643676757812,-1.058441162109375,-0.1305084228515625,0.1522481258298679,-0.07252000701172973,-0.5864397899442446
9.498459374997765,1.40521240234375,-3.438430786132812,-0.2353363037109375,-2.318549110287421,-4.852002004738786,2.022229828438664
9.557829375029542,-0.1085662841796875,0.114532470703125,0.67181396484375,0.03520006539201332,0.6438104050950586,3.288676910065997
9.617199374944903,-0.4678802490234375,-0.507080078125,-0.119537353515625,-1.233777551903113,0.7475828738149771,3.784714631543066
9.67656937497668,0.3672332763671875,-1.2410888671875,0.173858642578125,-0.08001520758364873,-0.0267565131559171,0.07167312178508452
9.735926375025883,-0.1504974365234375,-0.97235107421875,0.424713134765625,0.01725142490931529,0.5560975966966448,0.2987203878875719
9.795283374958672,-0.071533203125,-0.94525146484375,0.3660430908203125,-0.05107570128219368,0.05920713103853262,0.435276103310257
9.85463937500026,0.0921173095703125,-1.047882080078125,0.2495880126953125,-0.107616741753448,0.3108928982819971,0.7671656299425478
9.913996375049464,-0.0333099365234375,-1.236129760742188,0.3600921630859375,-0.0751208501323011,0.7524255659411773,1.456210625100929
9.973346375045367,-0.04022216796875,-1.584396362304688,0.140869140625,-0.263800487042235,1.005318810422884,2.002271033965175
10.0327213749988,0.984893798828125,-2.52801513671875,0.85260009765625,-0.4081661886776863,1.933686912728473,3.02162097490725
10.092083374969661,0.303741455078125,-1.767501831054688,0.03033447265625,-1.634588622282219,2.905896239215056,4.916151696444397
10.151448374963365,-0.484832763671875,-0.440093994140625,0.23779296875,0.06613534461437376,1.702089369587476,6.102717261174803
10.210810375050642,0.31451416015625,0.0301666259765625,0.1545867919921875,0.5017448756931087,-0.05327387444594508,-2.882437784753093
10.27016737498343,0.19342041015625,-0.639434814453125,-0.12603759765625,0.5583018951309034,-0.481757851712064,-4.721691402072336
10.329508375027217,0.2599029541015625,-1.091094970703125,0.0219268798828125,0.7472132270556742,-0.7467293306856068,-5.798436725563364
10.38886637496762,-0.0241851806640625,-2.288726806640625,0.3035430908203125,0.5024319712543491,-1.313522714952228,-6.791046398632171
10.448244374943897,-1.748687744140625,-2.156341552734375,0.8298187255859375,0.402373813306764,-2.603453284755771,-3.800868834083269
10.507604375015944,-2.347442626953125,-1.071182250976562,0.00592041015625,0.5201435904000301,-1.094997298021885,1.681523108069339
10.566949374973774,-0.2346954345703125,-1.222152709960938,0.766845703125,-2.501615868883904,-2.594025960812999,1.017671084190889
10.626290375017561,-0.82513427734375,-1.487579345703125,0.6963653564453125,1.085998210382398,0.8093274647401373,2.895090463092059
10.685671375016682,0.103973388671875,-0.97540283203125,-0.0876922607421875,0.01399597679280243,0.2628894196333189,-0.06365008268511181
10.745032374979928,-0.14752197265625,-0.85626220703125,0.3574676513671875,0.3242089700485024,0.2017962379107921,0.711012345726009
10.804376375046559,0.1846160888671875,-0.98583984375,0.18115234375,-0.1074020909695876,0.5166055808918598,0.1136312247592829
10.863764374982566,-0.0894012451171875,-0.959136962890625,0.24005126953125,0.01216105880173783,0.6666534030291043,0.7899441793782136
10.923104375018738,0.1650238037109375,-1.082504272460938,0.4032135009765625,0.06113446071942296,0.4983759769141584,1.367409649081109
10.982486375025474,0.033538818359375,-1.332611083984375,0.1893463134765625,-0.1006376618007863,1.043856349292984,1.848432468332311
11.041848374996334,0.2714691162109375,-1.8095703125,0.3979339599609375,-0.3444138406067155,1.204230045924793,3.094718355243308
11.101205375045538,2.021774291992188,-2.143295288085938,0.9191741943359375,-1.502701428250443,2.868680427193961,2.892479499959345
11.160571375046857,0.14532470703125,-0.089935302734375,0.742340087890625,0.05407761646293099,-1.3129424121507,7.215731642919401
11.21993937494699,0.7457427978515625,0.1186065673828125,0.1353912353515625,-0.9189743341925527,-0.3506328543842686,-2.748715140098034
11.279314375016838,0.20855712890625,-0.7054901123046875,0.3152313232421875,-0.1299287053661318,-0.4288943703901001,-3.529853843648009
11.338663375005126,0.1251983642578125,-1.012847900390625,0.1252593994140625,0.187811446394568,-1.116854127404274,-6.157020713698173
11.398019375046715,-0.003326416015625,-2.717575073242188,0.6755828857421875,0.8855154435212331,-1.17700534904924,-7.207008725084956
11.457366375019774,-2.487319946289062,-1.9974365234375,0.984161376953125,-0.01698351090365332,-1.365711883886184,-1.638151931820745
11.51673737494275,-1.778350830078125,-1.247589111328125,0.1017913818359375,-0.2177736065546135,-0.4625031970307911,-0.842389810725144
11.576116375043057,-0.4398193359375,-2.435455322265625,0.7154083251953125,-2.329916547084315,-2.90629491443024,-0.1278439828648178
11.635467375046574,-1.406463623046875,-1.063308715820312,0.667266845703125,0.2566190068467273,0.6760322574400363,3.6476332081212
11.69483637495432,0.1833038330078125,-0.962677001953125,-0.05877685546875,-1.108923233678018,0.3835284864850363,0.2244192587387973
11.75419237499591,-0.0375518798828125,-0.8137969970703125,0.4176788330078125,0.3171697026552049,0.2587647157370042,0.4193898147757163
11.81354637502227,0.2719268798828125,-0.96990966796875,0.0672454833984375,-0.3244454587533014,0.3083935215989578,0.04227981283387997
11.872896375018172,-0.0980377197265625,-0.9289093017578125,0.2727203369140625,-0.004706870910606046,0.4886860652879051,0.9656414386062292
11.932257374981418,0.14654541015625,-1.05657958984375,0.3465423583984375,-0.003593669574952924,0.5096129188176387,1.050683096431293
11.991615375038236,0.0426177978515625,-1.389816284179688,0.111114501953125,-0.2497656280975174,1.08671433439952,2.324347344612741
12.050972374971025,0.586456298828125,-2.195907592773438,0.5178070068359375,-0.4963051028505128,1.555624830696933,3.375365999341385
12.110330375027843,0.7411346435546875,-1.82403564453125,0.3507232666015625,-0.4200944872001512,1.472719294382221,3.519146870801455
12.169690374983475,0.18304443359375,-0.18023681640625,0.31878662109375,0.3971199291082557,0.8001669895385917,4.769788091359167
12.229049375047907,1.218917846679688,0.0874176025390625,-0.425079345703125,-0.1581257223556728,1.109509395433945,-3.542575764175318
12.288400375051424,0.073944091796875,-0.729888916015625,-0.096893310546875,0.8323443670933651,-0.3693375663004401,-4.528809829594476
12.347773374989629,0.1616363525390625,-1.632064819335938,0.327545166015625,1.096900659252965,-1.911983747740981,-6.499570874174051
12.407132374937646,-0.66241455078125,-2.061325073242188,0.863189697265625,1.55082315125152,-1.715385201329697,-5.487856748709451
12.466486374964006,-2.796371459960938,-1.35137939453125,0.1631011962890625,0.22215823497332,-0.7664457774998994,-3.738079485062471
12.525844375020824,-0.6214447021484375,-1.704345703125,-0.8849639892578125,0.8440132737256563,-0.8038791697820532,1.793579871992167
12.585209375014529,0.461578369140625,0.1885986328125,1.754806518554688,3.580013417515216,0.02350452714882134,5.498260121191736
12.64457137498539,-1.076065063476562,-1.298934936523438,0.38323974609375,-0.7625120222537434,0.2687907182928255,2.531388944606554
12.703927375026979,0.2252349853515625,-1.06915283203125,0.143096923828125,-0.4838622816054446,0.6232529320085189,0.1517170915085061
12.763286374974996,-0.1093292236328125,-0.854827880859375,0.358795166015625,0.1929327051707904,0.6071410737296485,0.7288629818805922
12.822642375016585,0.115814208984375,-1.01153564453125,0.1114349365234375,-0.0033710293078223,0.5011318160101724,0.56685809908111
12.88200537499506,0.0579833984375,-0.979248046875,0.1920166015625,-0.03776468952175963,0.4530007719452793,0.7613668629850093
12.941365374950692,0.0435028076171875,-1.09918212890625,0.42059326171875,-0.02027411274655522,0.6066071099310877,1.202028943283842
13.000729374936782,0.125518798828125,-1.452651977539062,0.09423828125,-0.530389836378001,0.9513336056497784,2.297996430890843
13.060090375016443,0.707733154296875,-2.49871826171875,0.7421112060546875,-0.3821492353564843,1.102525521791321,3.115008979588622
13.11944137501996,0.5434417724609375,-1.91595458984375,-0.214630126953125,-1.57831443055219,3.115353858949788,3.009103585151659
13.178810375044122,0.2968902587890625,-0.1840972900390625,0.3936767578125,-0.05743852575861099,-0.09911007259951686,1.039253341664891
13.23814037500415,0.580078125,-0.20672607421875,-0.157623291015625,0.5245814820405381,-0.2596994852796219,-3.517558028895114
13.297498374944553,0.1486358642578125,-0.7023773193359375,-0.07171630859375,0.3735056797225231,-0.3965321694556752,-4.880471196791733
13.356856375001371,0.2747039794921875,-1.58447265625,0.1635284423828125,0.5527183115894433,-1.26292318687294,-6.819294548314642
13.416244291700423,-0.24932861328125,-2.640411376953125,0.7758636474609375,0.9231048970432656,-1.428642646760865,-5.960309515572778
13.475606291671284,-3.918350219726562,-1.013839721679688,0.457305908203125,-0.6057264025585984,-0.5361795485878332,-2.718808373688662
13.534985291655175,0.4070892333984375,-2.378692626953125,-2.261444091796875,1.265789813470302,-0.6918740711843726,2.475783206310135
13.594344291603193,0.143829345703125,0.8177490234375,1.778228759765625,2.842830720389216,0.7572011464079074,6.407561321672903
13.653703291667625,-0.5724639892578125,-0.2225189208984375,-0.244873046875,-1.146351299637992,0.8741948783595243,0.676259691397129
13.713070291676559,0.388031005859375,-1.159194946289062,0.372222900390625,0.3769544733341757,-0.02818423381630858,-0.2990309124706752
13.772434291662648,-0.1798553466796875,-0.9048614501953125,0.5244140625,0.4025469187776192,0.1074593489330243,0.7632529136690034
13.831799291656353,0.080780029296875,-0.98724365234375,0.0761260986328125,-0.2924763403957722,0.5688714488652099,0.1950424613863512
13.89115029165987,-0.019073486328125,-0.9673309326171875,0.2210693359375,-0.08288716050319017,0.3650637253830809,0.7740408466126963
13.950507291709073,-0.060821533203125,-1.11688232421875,0.41064453125,-0.03432654855446733,0.7785447846482384,1.055163066017025
14.009863291634247,0.213409423828125,-1.569107055664062,0.0155029296875,-0.3801657129765932,1.104783083447381,1.429796860777305
14.06922029168345,0.780792236328125,-2.476898193359375,0.8983306884765625,-0.7353158212018541,1.465558054210998,3.563846431801781
14.128585291677155,0.5078277587890625,-2.053787231445312,-0.1220703125,-2.208797578604165,3.371958751042738,3.463249250049564
14.187954291701317,0.2233123779296875,-0.135009765625,0.2942962646484375,-0.120189525259712,-1.391605799165024,-0.01774624023985201
14.247313291649334,0.7929534912109375,-0.12701416015625,-0.1656951904296875,-0.3199926534106889,-0.2689806016785481,-3.168234917134946
14.306672291713767,0.02783203125,-0.8316192626953125,0.0360260009765625,0.1050095070462604,-1.396589905145107,-5.0059987621404
14.366029291646555,0.0640411376953125,-1.798431396484375,0.464935302734375,0.1727459441079898,-1.40601962593286,-6.304129471256405
14.425385291688144,-0.6897125244140625,-1.829177856445312,0.81402587890625,0.568002725717626,-2.45304194112973,-5.618744724700229
14.484720291686244,-2.756103515625,-1.269058227539062,0.1660614013671875,-0.2129522197171341,0.2385763567775495,-1.950131133511385
14.544077291619033,-1.116409301757812,-1.002700805664062,0.0985260009765625,0.6986914972588665,-0.0424657014779675,1.215921056794132
14.60343729169108,0.100982666015625,0.294189453125,0.4582977294921875,3.024349117127927,1.695576875457796,5.40280869929777
14.66279929166194,-1.2557373046875,-2.065292358398438,0.8282012939453125,0.7409324279408313,0.4237046683738627,1.809833676757139
14.72216329164803,0.1451263427734375,-0.98114013671875,0.1524200439453125,0.2578637683402303,-0.2194503327769274,-0.2212975013090064
14.781521291704848,-0.0376129150390625,-0.89227294921875,0.3324432373046875,0.3762402135298165,0.822191598069656,0.2341302093376622
14.840884291683324,0.1710205078125,-0.9934234619140625,0.2840118408203125,0.07696748603216205,0.5520322812926388,0.09733800521017814
14.900240291608498,-0.03778076171875,-0.96173095703125,0.2651214599609375,0.02131221293946811,0.5836229644592678,0.8963885976198086
14.959611291647889,-0.0390777587890625,-1.08270263671875,0.346435546875,-0.03138322291771176,0.7680244993940983,1.432609158888429
15.01897329161875,0.1404571533203125,-1.440139770507812,0.112884521484375,-0.4798504957393492,1.042208385210443,2.137132446302351
15.078417291631922,0.3798065185546875,-1.987380981445312,0.4551849365234375,-0.2831920282035379,1.328844413335672,3.150930761636047
15.137773291673511,0.7118377685546875,-2.019760131835938,0.007568359375,-1.204525923121901,2.500688289876229,3.680115251304678
15.197131291613914,-0.05853271484375,-0.1690521240234375,0.4877777099609375,0.7005775479428606,-0.6706244425305213,6.291207281015123
15.256491291685961,0.8661041259765625,-0.03436279296875,-0.0874786376953125,-0.4983914232484808,0.6290168115557774,-2.474731257679554
15.315852291649207,0.110870361328125,-0.805206298828125,-0.1286468505859375,0.8515276490574238,-0.6135678140722277,-4.628432827019942
15.37521229160484,0.173736572265625,-1.240798950195312,-0.2198638916015625,0.7881843625298892,-0.8678389781019412,-5.783224749416831
15.434550291625783,0,-2.254730224609375,0.13037109375,0.07710330724775609,-0.7679227666404573,-7.23748114690986
15.493933291640133,-1.082748413085938,-2.337234497070312,0.5746612548828125,0.2671123941738575,-1.355840610989696,-5.150269122608826
15.55329329171218,-3.795883178710938,-0.6277313232421875,-0.3565521240234375,-0.9247565895513327,-2.368508680756762,0.9839426816172537
15.612658291705884,2.472198486328125,-3.888427734375,-3.132583618164062,1.134273331462265,-1.246286419543215,2.816530939360248
15.672022291691974,-0.54705810546875,-0.8690948486328125,0.819183349609375,0.9120847364525176,-0.3454910892676525,5.759032594074551
15.731381291639991,-0.159088134765625,-0.7855377197265625,-0.244903564453125,0.04481567482385342,0.9357671627621563,-0.2565257962085745
15.790746291633695,0.3423004150390625,-1.1453857421875,0.212005615234375,0.8934894804571484,-0.5508453103947906,-0.9645404878115904
15.850107291713357,-0.03314208984375,-0.9783935546875,0.1392822265625,0.2950777161485616,0.5644894836075935,0.5034104166388442
15.909469291684218,-0.05548095703125,-0.969146728515625,0.2721099853515625,0.1735779156325305,0.317373434478596,0.6329220709782696
15.968808291712776,0.197357177734375,-1.074188232421875,0.2787933349609375,-0.1464951652430787,0.6845186865696827,0.9559533911927389
16.028192291618325,0.1651763916015625,-1.32464599609375,0.3106231689453125,-0.05809845707673263,0.7709470523743513,1.636151365209877
16.08754929166753,0.15386962890625,-1.636978149414062,0.0711669921875,-0.5428353207841592,0.8530200845323043,2.836288931487545
16.146898291655816,1.182769775390625,-2.214614868164062,1.075393676757812,-0.4287817186759897,1.197466415704319,3.507256921798687
16.206264291657135,0.6325836181640625,-2.21929931640625,0.390625,-1.511425943981542,2.94682716095681,3.928734122236807
16.265626291627996,0.0079498291015625,-0.4496002197265625,0.21514892578125,-0.8196219139338385,-2.942007372015985,2.625409716362929
16.324998291675,0.34246826171875,0.1146087646484375,0.087005615234375,-0.5159730801329659,0.03743419123048079,-2.457553868648543
16.384361291653477,0.3450775146484375,-0.6103973388671875,-0.1905670166015625,0.4703621854076149,-0.03689197163254066,-5.758431784932629
16.443725291639566,0.2985992431640625,-1.575576782226562,0.0254669189453125,1.064410626586216,-1.144655931288048,-6.969586316007737
16.503084291704,-0.085723876953125,-2.81964111328125,0.8255157470703125,0.985969879839022,-3.444667842491863,-7.095606033525851
16.562445291667245,-3.699066162109375,-1.366287231445312,0.993743896484375,0.8007693965771676,-2.769229203658805,-3.546235480145305
16.621805291622877,-0.176544189453125,-2.25494384765625,-1.731430053710938,1.324532222898615,1.223514528010275,2.350221019867297
16.68116429168731,0.7233123779296875,-0.55426025390625,2.150344848632812,4.863638953437996,-1.929209339987723,5.826316293750967
16.740525291650556,-1.436752319335938,-1.961196899414062,0.2313079833984375,0.5115969738297478,-0.08092973710198194,4.286050445692739
16.799886291613802,0.021697998046875,-1.13641357421875,0.1312255859375,0.08908273846315051,0.3904907885228304,-0.02558445596017322
16.859247291693464,0.0020294189453125,-0.8447418212890625,0.375091552734375,0.216747756902715,1.367329487932298,0.4337602320177839
16.918605291633867,0.239044189453125,-0.9275970458984375,0.1872100830078125,0.1476419224084669,0.2416144909491119,0.7083587720158541
16.977961291675456,0.101531982421875,-1.022567749023438,0.24737548828125,0.1144312383507427,0.4742384163742252,1.055392097870772
17.037304291618057,-0.0762786865234375,-1.08123779296875,0.3964385986328125,0.06295766080169121,0.6845426550194935,1.516714449274221
17.096664291690104,0.112091064453125,-1.622787475585938,0.0184478759765625,-0.148017960754386,1.140131753228221,1.664013356534286
17.156024291645736,0.727447509765625,-2.268447875976562,0.72515869140625,-0.3663929090831394,1.280170084408403,3.023520874028912
17.21538729162421,1.111114501953125,-2.2071533203125,0.16485595703125,-1.003186683654166,3.398020445470253,3.091525757728522
17.274744291673414,-0.44769287109375,0.572296142578125,0.845947265625,-0.2339192869793279,0.9140552093430673,5.062425286684781
17.334093291661702,0.44085693359375,0.006103515625,-0.0878753662109375,-0.4656100407584775,-2.224635663922975,-2.209801057702907
17.393457291647792,0.437774658203125,-0.8642730712890625,-0.11376953125,0.8036173810468984,-0.4601665394903555,-5.327246297056734
17.452818291611038,0.23272705078125,-1.250091552734375,0.36297607421875,1.219809271985647,-1.796686982035963,-6.394195448794013
17.512190291658044,0.131500244140625,-2.495574951171875,0.8030548095703125,0.9541674753657318,-2.01482730587268,-7.253160241511592
17.571554291644134,-4.023544311523438,-1.545867919921875,1.784744262695312,1.140664918078455,-2.007454610710905,-3.551283235675441
17.630923291668296,0.487457275390625,-2.6256103515625,-2.524078369140625,1.71610638535289,1.084821625812801,3.634211941491636
17.690284291631542,0.9587860107421875,0.1212158203125,1.611419677734375,-2.349552566433687,3.172310618867203,-3.743296617637936
17.74964429170359,-1.404251098632812,0.191802978515625,-1.106903076171875,0.1047676920192812,0.2759647416372809,5.472533452429353
17.80898929166142,0.37451171875,-1.145401000976562,0.72064208984375,1.097611723264016,-0.6091416403405161,-0.8785299719819553
17.868371291668154,-0.0414276123046875,-0.926361083984375,0.526153564453125,0.4588583947629086,0.5443631763015376,0.6881096929835456
17.92773029161617,0.007293701171875,-0.8736724853515625,0.3384246826171875,-0.1524558523948941,0.4836311192228257,0.4582597161498588
17.987085291650146,0.0740509033203125,-1.030319213867188,0.2440948486328125,-0.01785809300563534,0.6222180276089141,0.8010793885280528
18.04645029164385,-0.1809234619140625,-0.99688720703125,0.3447265625,0.07192399155976999,0.5439967253355428,1.485226297809561
18.105813291622326,-0.00286865234375,-1.58721923828125,0.2173004150390625,-0.004086354376617583,0.9096636567055266,1.358578074274188
18.165175291709602,0.7117919921875,-2.232574462890625,0.7414398193359375,-0.2729601632954535,1.657591942513887,2.7198826928724
18.224538291688077,0.841796875,-2.370330810546875,0.1453857421875,-1.147041058360322,3.210491294151233,3.709617749860576
18.283897291636094,-0.325531005859375,0.0590972900390625,0.5077362060546875,-0.01318584318920032,-0.03548955100250493,6.386193182350543
18.34326029161457,0.4197845458984375,0.0860748291015625,-0.044525146484375,-0.721998950487022,-0.3592476478784569,-2.815679793075858
18.40262129169423,0.1920166015625,-0.6448822021484375,-0.1959228515625,0.1711033063476289,-0.7010148389938516,-5.26412831395742
18.461948625044897,0.1971588134765625,-1.24273681640625,0.105255126953125,0.1296693134759581,-0.542293367502328,-6.0813123702294
18.521305624977686,0.2194976806640625,-2.416152954101562,0.5526275634765625,0.1737227915958308,-0.854020900469956,-7.451797970369551
18.58066262502689,-2.25128173828125,-2.41680908203125,1.469802856445312,0.6822390206765749,-2.183714862193363,-3.939672257465981
18.64000762498472,-1.58221435546875,-1.670516967773438,-0.384735107421875,1.206471628614313,0.7534623345535451,2.136842161743532
18.699372624978423,0.726715087890625,-0.508758544921875,1.778656005859375,-1.981634731310368,0.3178027360463167,-1.030893679003133
18.758716625045054,-1.159530639648438,-1.292449951171875,0.492828369140625,0.6226230944107152,0.4058891859456686,3.862898649561176
18.81807962502353,-0.0747222900390625,-0.8701324462890625,0.3283233642578125,1.023193415027277,0.2673901618755528,0.3119685490462801
18.877430625027046,0.0235443115234375,-0.9190826416015625,0.312713623046875,0.2769075006631689,0.2657440620057748,0.1101829637798483
18.936810625018552,0.1382598876953125,-0.9824981689453125,0.252532958984375,-0.009292301675504478,0.3270638787370673,0.2202263779185765
18.99616962496657,-0.0177459716796875,-0.96588134765625,0.1728973388671875,-0.02792111350060875,0.5206168341257371,0.8426998026760292
19.055529625038616,-0.038543701171875,-0.980224609375,0.3307952880859375,0.05543742651552545,0.3994733645635587,1.23312880586157
19.114895625039935,-0.036407470703125,-1.173171997070312,0.258575439453125,-0.003157443788397945,0.6406721360665092,1.337030437894357
19.174276625039056,0.050994873046875,-1.544265747070312,0.32281494140625,-0.1958541928866073,0.9730207916707297,2.098590113742288
19.233631624956615,1.6048583984375,-2.809005737304688,0.83135986328125,-0.5618694657271736,1.903004900125779,3.469565735523013
19.293009625049308,0.283538818359375,-1.600143432617188,0.6635589599609375,-1.740586162092898,3.559539834003014,3.57012030669779
19.35235062497668,0.407012939453125,0.00543212890625,0.1721954345703125,-0.3150178684944209,-1.10391622451256,0.3744377861040508
19.411710625048727,0.6876220703125,-0.38372802734375,-0.1953277587890625,0.6839093553122727,-0.3830190237685041,-3.835893130843337
19.471077624941245,0.08355712890625,-0.9939727783203125,-0.114471435546875,0.7057185141111495,-1.120215835648281,-5.026887532466545
19.530442625051364,0.1283111572265625,-1.791549682617188,0.1089324951171875,-0.002908704542584544,-0.5050304175299394,-6.725589094831331
19.589799624984153,-0.4575653076171875,-2.230392456054688,0.5402069091796875,0.557850755642244,-1.436967688328453,-5.944399791220644
19.649153625010513,-2.732376098632812,-1.102142333984375,0.965911865234375,-0.2656338071366455,-0.07614829768085367,0.3130247587346056
19.708525624941103,0.10333251953125,-1.936920166015625,-1.977066040039062,0.3020035328794217,-1.470851885825858,2.24303357968157
19.76788762502838,0.656829833984375,0.400299072265625,1.533294677734375,3.950091608914807,-0.3500157999596972,5.192376895236287
19.827238625031896,-0.8205108642578125,-0.4823150634765625,0.265869140625,-1.00372517482658,0.05306641419702791,3.779693507623831
19.8865966249723,0.1977081298828125,-1.003936767578125,0.42401123046875,-0.0003446130450562534,0.2028913297510327,0.3601675037189702
19.945923625025898,-0.1537628173828125,-0.918365478515625,0.3422088623046875,0.2244538798329683,0.2880248666337047,0.8176703494870285
20.005303625017405,0.0713653564453125,-0.965240478515625,0.252777099609375,0.2141959159462011,0.3293845573109623,0.4409465059032537
20.06465962494258,-0.0512847900390625,-0.9565277099609375,0.176483154296875,0.1938914431632189,0.3410662471164859,0.6763720767951305
20.12401862500701,-0.0176544189453125,-0.98486328125,0.390594482421875,0.1031293153166645,0.3057687100285757,0.8611198226716713
20.183371625025757,0.0229644775390625,-1.211090087890625,0.3186798095703125,-0.03132303547707597,0.9752940659772213,1.078575447792129
20.242708625039086,0.172637939453125,-1.657318115234375,0.058685302734375,-0.2178737414116005,1.219020443670766,1.549059073345452
20.302065624971874,1.261917114257812,-2.760971069335938,0.880828857421875,-0.2193512631843764,1.802218367620057,3.239537326896291
20.361421625013463,0.469085693359375,-1.756149291992188,0.5435028076171875,-1.520547270715064,2.348492095687618,5.971200246534548
20.42077862494625,0.215911865234375,-0.1439971923828125,0.3131256103515625,0.6017977073185136,0.8845966529451558,5.018372873829344
20.480133624980226,0.7040863037109375,0.1077117919921875,0.0195770263671875,0.07170827551147357,0.1508880494611644,-3.375205144411544
20.539493624935858,0.1481475830078125,-0.824310302734375,0.2235565185546875,0.9989506596242862,-1.014012966117556,-4.930925316275502
20.598817624966614,0.131103515625,-1.5792236328125,0.1607666015625,0.6812014531158801,-0.4124416274916995,-6.95865723552627
20.658194625051692,-0.288726806640625,-2.381973266601562,0.6507110595703125,0.8018623578885362,-0.8194599937395618,-7.050041477803467
20.71755162498448,-2.617706298828125,-1.357284545898438,0.918304443359375,0.3810344361241771,-1.464419286528881,-2.097345884881003
20.7769096250413,-1.186965942382812,-1.214996337890625,0.076446533203125,1.278747157437973,-1.100255709594246,2.677486233582774
20.836275625042617,1.464553833007812,-1.300613403320312,1.528533935546875,-3.653094286252516,-5.429522868192355,-2.029903993435837
20.895636625005864,-1.54156494140625,-1.48052978515625,0.8827667236328125,0.1775620046232891,-0.6687200160350057,4.749650332460424
20.954996624961495,-0.0023345947265625,-0.9354248046875,0.214141845703125,0.7506449764363503,1.572763337576029,-0.6757270591791132
21.014362624962814,0.123046875,-0.8162841796875,0.084503173828125,0.08473113324196105,0.7093396142453303,0.836406753020172
21.07372562494129,0.2572021484375,-0.9971160888671875,0.103271484375,0.02032577807170276,0.5386994316112662,0.3756585791477431
21.13308862503618,-0.0308074951171875,-0.9468536376953125,0.24945068359375,0.03697426331022411,0.2832293124587991,0.9338187941086543
21.192447624984197,0.0251922607421875,-1.03863525390625,0.34521484375,0.05053614484534363,0.2559870387200515,1.225116419405957
21.251803625025786,0.057159423828125,-1.2236328125,0.257232666015625,-0.05225548164509878,0.8501023252420135,1.33469697614723
21.311167625011876,0.088287353515625,-1.512741088867188,0.370025634765625,-0.153596217973666,0.9225256595061733,2.292094865915228
21.370531624997966,1.334365844726562,-2.454391479492188,1.013137817382812,-0.5240573719380105,1.762950057346839,3.261146215981194
21.42986762500368,0.3313751220703125,-2.155471801757812,0.786407470703125,-0.9389309981371704,4.164154100490395,2.882714220874242
21.489225624944083,0.0395050048828125,-0.3690338134765625,0.02960205078125,-0.4028691612695187,0.4297380598234372,2.349644179175186
21.548586625023745,0.893463134765625,-0.101654052734375,0.0286712646484375,1.396998434056326,-1.163386209550684,-3.894102375421417
21.607963624992408,0.114593505859375,-0.7151031494140625,0.0511627197265625,1.234702201433589,-1.729727655380318,-3.834635053544384
21.667318625026383,-0.0009002685546875,-1.169113159179688,0.20196533203125,0.3610788374439953,-1.355116497489303,-5.642679086048989
21.72666062496137,0.145660400390625,-2.79205322265625,0.628204345703125,0.4924728140418888,-1.752495285855515,-7.787088353713873
21.786011624964885,-2.92779541015625,-1.60675048828125,0.9677276611328125,-0.4863747077778253,-1.130902035838333,0.02397430876511132
21.845369625021704,-0.650909423828125,-1.469482421875,-0.4252471923828125,0.01233736006590108,-1.950928483941755,2.282303487851443
21.90473262500018,1.28985595703125,-0.870147705078125,2.126052856445312,3.211342973067841,0.5096462083312647,2.159654799641151
21.964081624988467,-1.496795654296875,-0.48016357421875,0.4203033447265625,-0.4738658401377231,0.2365952312426395,4.051852592063389
22.023459624964744,0.0819244384765625,-0.958648681640625,0.082794189453125,-0.4018374526632221,0.7905034432071302,-0.4981570650725539
22.082811624975875,0.2113189697265625,-0.857147216796875,0.348846435546875,0.07129282238142121,0.6977402161174902,-0.008730374685497758
22.142173624946736,0.241973876953125,-0.95245361328125,0.1028594970703125,-0.2264704254103763,0.5928745197700941,0.4111862133538362
22.201525624957867,-0.0197906494140625,-0.9452972412109375,0.2885589599609375,0.02496393942618476,0.2162721163320268,0.9270905839306781
22.260866625001654,0.0640411376953125,-1.072128295898438,0.191558837890625,-0.2059667481778562,0.05589841970021817,1.340189479579409
22.320211624959484,-0.181732177734375,-1.038818359375,0.342987060546875,-0.01058979375859108,0.5156825292580384,2.228432532689101
22.379563624970615,-0.011383056640625,-1.558059692382812,0.120758056640625,-0.3091972636159437,1.380091888508175,2.441529628369536
22.438929624971934,0.6300506591796875,-2.35986328125,0.4211578369140625,-0.4406290571013162,2.076717039077249,3.207626265450526
22.49827262503095,0.57928466796875,-2.051803588867188,0.0454864501953125,-1.593963165117496,2.900583499156456,4.565548136832119
22.557618624996394,0.032470703125,-0.1193084716796875,0.173309326171875,-1.107730137509663,-1.332299065901722,1.443553153072001
22.61697362503037,1.459274291992188,0.3154449462890625,-0.00457763671875,-0.3965409578872724,0.3221570044285963,-4.362205134960209
22.67636062495876,0.177093505859375,-1.043731689453125,0.098236083984375,1.222485216248959,-1.135149245144792,-5.828038293711812
22.735698624979705,0.369873046875,-1.654937744140625,0.0629730224609375,0.741089554445146,-0.9576631406125697,-8.052623091257967
22.795052625006065,0.116485595703125,-3.224197387695312,0.481048583984375,0.727279466296431,-2.533346368007762,-7.457528027770965
22.854400624986738,-3.129135131835938,-1.484786987304688,1.722686767578125,1.256963032353343,-1.944126770517693,-1.49367437741951
22.913758625043556,0.49188232421875,-2.036758422851562,0.963470458984375,0.5673699586426232,-1.132413912389171,2.643399902158632
22.973107625031844,0.4896697998046875,0.629150390625,0.7811737060546875,-0.7122150292742888,2.425936820187122,4.291930705379634
23.03245662502013,-0.6785736083984375,-0.0139312744140625,0.1624298095703125,-0.2555878308726486,-1.261721302272988,3.368188247571403
23.09181162493769,0.1551055908203125,-1.048202514648438,0.453094482421875,0.5147229923172828,0.04202974200752153,-0.4841419135199029
23.15117762493901,0.1530609130859375,-0.9757232666015625,0.1887359619140625,-0.03074619478496481,0.9571757821330853,-0.1427459670604652
23.210528624942526,0.072906494140625,-0.920257568359375,0.3884429931640625,0.2317631917607998,0.4380921298469068,0.3640764915669885
23.26986662496347,0.1114044189453125,-1.010345458984375,0.222625732421875,-0.01797686999025287,0.5704240717807261,0.588470716591539
23.32922762504313,0.0981292724609375,-1.196640014648438,0.3754730224609375,0.01628576269805256,0.9437933976554371,1.380594959638092
23.388598624966107,0.2847442626953125,-1.808670043945312,0.1997528076171875,-0.2596603368115978,1.211122573142027,1.968025445507845
23.447959000011906,1.690277099609375,-2.461227416992188,0.9423370361328125,-0.8622047944997696,1.885837098474692,3.468548940618821
23.507322999997996,0.2148284912109375,-2.429672241210938,0.391845703125,-1.304589407391666,0.5821536984858711,5.375763765795798
23.566660000011325,0.0846405029296875,-0.09820556640625,0.152801513671875,-0.2035853495311074,-0.2900778975180468,5.880478598736563
23.62602500000503,0.4468841552734375,-0.075836181640625,0.09820556640625,0.8171579572932972,0.2115809580718523,-3.103721970256649
23.68538100004662,0.280242919921875,-0.6150360107421875,-0.01739501953125,-0.3251469353844282,-0.96939942522044,-5.387175411066787
23.744737999979407,0.178955078125,-1.468826293945312,0.4186553955078125,0.4482664704754455,-1.576785776086485,-7.269954135345632
23.804092000005767,-0.258636474609375,-2.809677124023438,0.893463134765625,0.5644841572854133,-1.823823528279434,-7.657293871666681
23.863448999938555,-3.57073974609375,-1.096649169921875,0.974700927734375,-0.3098838265449661,-1.259939114871506,-0.5778191374956581
23.922804999980144,0.4951629638671875,-2.399200439453125,-1.9344482421875,0.2940273654146343,0.1043288030716361,2.555014911901083
23.98216000001412,1.117340087890625,-0.4122314453125,0.91937255859375,1.700734086908735,2.869062590810387,-0.3367716335426241
24.04151999996975,-1.218154907226562,-1.802230834960938,0.4758758544921875,0.6158874273816868,-0.3184355031213196,4.37718914451743
24.100881000049412,0.078857421875,-0.93634033203125,-0.0767059326171875,0.8153560624997497,-0.3741208699343314,-0.707512952053645
24.160244000027888,0.227874755859375,-0.882080078125,0.3741455078125,-0.1854476246110137,1.643144559916316,0.2471946123811549
24.21958299994003,0.4232177734375,-1.02154541015625,0.2541046142578125,-0.110576046356744,0.5219920905126541,0.1210316167963951
24.278961000032723,0.1299896240234375,-0.9526519775390625,0.2300262451171875,-0.03749304709057154,0.5296289712545653,0.8980227132646813
24.33831400005147,0.06207275390625,-1.047698974609375,0.49041748046875,0.04081933529208052,0.4449092896052916,1.07806518612727
24.39767600002233,0.147003173828125,-1.428955078125,0.150665283203125,-0.1103187849954424,1.00549164957763,1.710284182577759
24.457044000038877,0.7112884521484375,-2.2845458984375,0.5464324951171875,-0.4238261085195703,1.04112740812398,2.883300648946278
24.516396999941207,1.388320922851562,-1.992385864257812,0.390411376953125,-1.426873242532616,2.27266151312481,3.406458937700278
24.57575399999041,0.118865966796875,0.5050506591796875,0.4922637939453125,1.384952423813679,-0.435951480962701,6.754736327697812
24.63510800001677,0.980133056640625,0.014373779296875,0.0987396240234375,-0.2829986827083982,1.522597638438316,-3.487501060200261
24.694482999970205,0.3731842041015625,-0.8082275390625,0.045013427734375,0.8266766276614584,-1.178541992998216,-4.72986730661888
24.753824000013992,0.0656890869140625,-1.393844604492188,0.397735595703125,0.6329455067958623,-1.786901729242685,-5.962887988140192
24.81318099994678,0.0265960693359375,-2.579879760742188,0.764678955078125,0.7240746182406297,-1.809606509116155,-7.313090420786081
24.872514999937266,-2.744430541992188,-1.529144287109375,1.623428344726562,0.1720444674768629,-1.108043857886074,-0.5376996809380504
24.9318889999995,-0.778717041015625,-1.896743774414062,-1.13922119140625,-0.9801279696718241,-2.942783949789852,2.116908933616507
24.991236999980174,0.8748321533203125,0.0894927978515625,1.535964965820312,3.213849540285823,1.794531685765761,2.325617672452709
25.05057800002396,-0.6743927001953125,-1.378631591796875,0.72540283203125,0.4659408053658654,-0.4105502504855253,3.268533292212856
25.109933999949135,0.1447601318359375,-0.904052734375,-0.191650390625,0.7482113798322358,-0.8088859126314022,-0.2699923365766692
25.169289999990724,-0.0245819091796875,-0.82781982421875,0.451873779296875,0.6045428937701672,0.2551438819189324,0.5901080280297197
25.228647000039928,0.5423736572265625,-1.029571533203125,0.168670654296875,-0.1341199882896985,0.04332536987784508,0.2915160045066896
25.288008000003174,0.0549774169921875,-0.9692230224609375,0.23126220703125,0.336937282162427,-0.2243556091887443,1.188979453942454
25.34738000005018,-0.0381011962890625,-1.025726318359375,0.4142303466796875,0.25422375976231,0.0975515907296025,1.280254506614958
25.40673299995251,0.0631256103515625,-1.419601440429688,0.1647491455078125,-0.1226438945203291,1.352665324021994,1.79918156502904
25.466087999986485,0.70965576171875,-1.983734130859375,0.3260498046875,-0.446100787876993,1.069514308499244,2.962919578159723
25.525531999999657,1.649459838867188,-2.144180297851562,1.05322265625,-0.08167435694276809,1.466559669096977,3.781584351997787
25.58483599999454,0.3937530517578125,0.2078857421875,0.443817138671875,0.827867593300942,1.430041338965375,6.965189969680234
25.644215999986045,1.669036865234375,-0.013641357421875,-0.4220428466796875,0.1505974985862368,0.3013657057983476,-2.299203375496867
25.703572000027634,0.26025390625,-0.9645233154296875,0.0734100341796875,1.472931548321101,-2.057823509039791,-4.094181407061326
25.76292500004638,-0.0061187744140625,-1.574249267578125,0.263427734375,0.6708305711988936,-1.908747740700426,-6.154453959039555
25.822278999956325,-0.2386322021484375,-2.449508666992188,0.4508056640625,0.3732590710055818,-0.6478245878061351,-6.523448776507701
25.881621000007726,-1.860183715820312,-1.749053955078125,0.3682403564453125,0.1669860593023664,0.1644866826193271,-4.217371782237339
25.9409760000417,-1.868453979492188,-1.856491088867188,-0.1915283203125,-0.08420116418503527,-1.726697777008135,1.526193172226032
26.00033299997449,0.58197021484375,-0.0972900390625,0.195556640625,1.0838932478568,0.7312518373783933,4.171833325493639
26.05968499998562,-1.052581787109375,-2.553207397460938,0.6898193359375,0.9841285702613413,0.1064228466367654,2.302695844950397
26.119047999964096,0.1729583740234375,-0.9335174560546875,0.358367919921875,-0.3159590296236549,0.1281044400194276,0.5686956802332647
26.1784050000133,0.0335845947265625,-0.85986328125,0.282135009765625,-0.06789835725600621,0.3704515665844202,0.6663324921177497
26.237760000047274,0.173736572265625,-0.9446868896484375,0.295928955078125,-0.01432354560688217,0.1847056679313176,0.4626880204104425
26.297136000008322,0.0711669921875,-0.9512481689453125,0.2597198486328125,0.008160458212220802,0.2340375313317274,0.6444231984618858
26.356495999963954,0.063995361328125,-1.056106567382812,0.3310394287109375,0.01861016969747372,0.4457865348683637,0.8062405947206265
26.415855000028387,0.1615753173828125,-1.340560913085938,0.436126708984375,-0.192987566289246,1.083906297346141,1.658217252737838
26.47521499998402,0.4058685302734375,-1.886306762695312,0.1625213623046875,-0.4673586723302235,0.9669210875100123,2.036708370020989
26.534580999985337,2.230148315429688,-1.992767333984375,1.146377563476562,-0.2879937076489508,1.21227066188796,3.183125716054015
26.59393099998124,0.5418243408203125,-1.01220703125,1.12335205078125,0.6105360714872815,-0.07035032967164216,6.501986361282753
26.653286000015214,0.7742767333984375,-0.1507720947265625,-0.059539794921875,-1.46282751514534,-3.91705616085681,2.558055709233735
26.712643999955617,0.4420318603515625,-0.8402557373046875,0.0717010498046875,0.2238765065086391,-0.344903063298963,-3.401641279288325
26.772017000010237,0.0231170654296875,-1.266372680664062,0.4037628173828125,0.1291595844433169,-1.834034087898798,-6.058534353425952
26.8313860000344,-0.24908447265625,-2.054367065429688,0.6626739501953125,0.5210208356631022,-0.9189434415239077,-6.373294427926854
26.89076500001829,-1.263809204101562,-2.349716186523438,0.28045654296875,-0.262387946400057,0.3645105868246715,-2.024024799013378
26.950137999956496,-3.350433349609375,-0.9819793701171875,0.17822265625,-0.1297976778404999,-1.125495552509363,0.2788313682346422
27.009507999988273,-0.819976806640625,-2.985885620117188,0.4928131103515625,1.494382778269471,1.866862075707878,0.7720658463482936
27.068872999981977,-0.4758758544921875,-2.547805786132812,-0.024505615234375,0.5842517367926355,-0.8105546493704457,1.669887757266783
27.12824400002137,-0.1102294921875,-1.072372436523438,-0.02960205078125,-0.2614371978908986,0.4584900795841507,0.9477343434365364
27.187603999977,0.0478973388671875,-0.8446807861328125,0.2751312255859375,0.02354660509404459,0.571464302502511,0.6002035390899921
27.246968999970704,0.26953125,-0.9966278076171875,0.2349853515625,0.01572170517917378,0.6865940880071816,0.2770278755444405
27.306330999941565,-0.03515625,-0.975494384765625,0.2606048583984375,0.01480611039640453,0.3269453680685587,0.9439851452539229
27.365694000036456,0.02508544921875,-1.086654663085938,0.190032958984375,-0.1022621900657347,0.5656543502683942,0.8645521046845654
27.425050999969244,0.194580078125,-1.476425170898438,0.24371337890625,-0.107416472039474,0.6303334783987126,1.090872860441679
27.484409000026062,0.45416259765625,-1.686004638671875,0.412933349609375,-0.420018853425193,0.8851087788227781,2.417093527471405
27.54376599995885,1.878952026367188,-1.915618896484375,1.4912109375,-0.217892383539231,2.305953689911891,2.769248112102545
27.603123000008054,0.3405303955078125,-0.833251953125,1.09893798828125,-1.949875470046738,4.416598868644532,3.945357041128864
27.66247800004203,0.62017822265625,-0.07855224609375,-0.014892578125,-0.9743845964649593,-4.956010163215177,0.3100377572559727
27.721841000020504,0.5009918212890625,-0.7606201171875,0.1253662109375,0.4744741061306972,-0.9934182087757556,-3.606483640853949
27.781185999978334,-0.1391754150390625,-1.6143798828125,0.438751220703125,0.3756836128619899,-1.843328253787065,-5.214123736065656
27.840543000027537,-0.59967041015625,-1.720657348632812,0.8756103515625,0.7567798343234569,-1.624472604881553,-5.205701222802172
27.899897999945097,-1.05169677734375,-1.515350341796875,-0.0507659912109375,0.8472500797145386,-0.8169667423270296,-4.319211594954187
27.959256000001915,-1.445755004882812,-1.305282592773438,0.1432952880859375,0.3219644578817836,-0.8968357423668329,-2.333869743406429
28.018612000043504,-1.998764038085938,-1.04681396484375,-0.253204345703125,0.1061919505702556,-0.9341421018649899,0.6157867598924818
28.07797500002198,1.348434448242188,-0.686279296875,0.62799072265625,-0.6689700868613642,2.982268242427476,-4.12200717939491
28.137355000013486,-0.8132171630859375,-1.332229614257812,0.485595703125,0.1257779024911343,-0.6157454808955856,4.471907664479406
28.196713999961503,0.0462493896484375,-0.8757781982421875,0.2353668212890625,-0.5153168772403705,0.8497960617166543,1.140490214710945
28.256071000010706,0.08465576171875,-0.835296630859375,0.0662078857421875,-0.2993078812240434,0.6829546120614792,-0.0044767737924232
28.31542600004468,0.1812591552734375,-0.95465087890625,0.3214263916015625,-0.03343971591147095,0.1896367770057084,0.4125273812788001
28.374781999969855,0.1309967041015625,-0.9568328857421875,0.204833984375,-0.1773707896570214,0.4006097354006955,0.5540291194779803
28.43414566665888,0.1087646484375,-0.9977569580078125,0.33331298828125,-0.03662858500073183,0.2376945841406242,0.8042469523285931
28.493501666700467,0.0785675048828125,-1.233062744140625,0.3656463623046875,0.009929862440469447,0.7337749161951344,1.539596329360182
28.55285766662564,0.23992919921875,-1.68499755859375,0.2089080810546875,-0.4559640712902105,1.176179236479097,2.400008816446328
28.612187666702084,1.530670166015625,-2.0523681640625,1.117446899414062,-0.3823564292892924,1.266332832016569,2.893626257124733
28.67157566663809,0.3837890625,-1.4921875,0.719482421875,-2.052013556805675,4.216419702147636,4.103139215703917
28.73093566671014,0.76385498046875,-0.1060028076171875,0.2325286865234375,-0.09759313604260773,-1.307851513410904,-1.731561241790838
28.790296666673385,0.549957275390625,-0.5453033447265625,0.0997161865234375,0.4913825158916103,-1.232804965473016,-3.395984192500778
28.849655666621402,-0.0847930908203125,-1.048110961914062,0.2701568603515625,0.2377686200189284,-1.407220178952268,-4.475001192401643
28.908985666697845,0.159881591796875,-1.7950439453125,0.5216827392578125,0.5590390581206374,-1.699036321713809,-6.389186042783574
28.96835666662082,-0.8000946044921875,-1.952072143554688,0.46966552734375,0.7306494303398173,-0.9687006117504032,-4.579803505515095
29.027675666613504,-1.912261962890625,-1.273208618164062,0.3344879150390625,-0.1600336109606056,-0.9091067897215911,-3.052376224439921
29.087034666677937,-1.174468994140625,-1.421905517578125,-0.170654296875,0.315931332748318,-1.470110994410598,2.089542290254853
29.14639266661834,1.091766357421875,-0.4828033447265625,0.8685150146484375,3.21656969302323,-0.6618133740639942,4.397114915793403
29.205762666650116,-1.253753662109375,-0.4837799072265625,0.2843170166015625,-1.580282506597759,0.7954776954911802,3.06773946813637
29.265126666636206,0.061614990234375,-0.8778076171875,0.187896728515625,0.6615526505932755,1.436612156322927,-0.4813386701564855
29.324490666622296,0.1380462646484375,-0.8567657470703125,0.2438812255859375,-0.08697458014424379,1.045501117582217,0.2186593739331739
29.383852666709572,0.305328369140625,-0.9909515380859375,0.203887939453125,-0.08677271253361579,0.1582431677597453,0.3275768035630165
29.443217666703276,0.0045623779296875,-0.960174560546875,0.28289794921875,0.1050031154596442,0.2586563250806379,0.9415829739506714
29.502579666674137,0.1252899169921875,-1.065231323242188,0.3168792724609375,0.01461276490126478,0.3268902406339941,1.302128113912215
29.561922666616738,0.06842041015625,-1.406051635742188,0.321868896484375,-0.1249874762795988,0.8732920667499875,2.139161775052991
29.621278666658327,0.4862213134765625,-2.039993286132812,0.4865570068359375,-0.2124494149033271,1.469412180940561,3.455326345806578
29.680619666702114,1.894821166992188,-2.232025146484375,0.693023681640625,-0.4922613590513364,2.990418314311445,3.918070292599912
29.739976666634902,0.2626190185546875,0.380828857421875,0.345611572265625,-0.2998154797278125,-1.524062909670077,4.213122975034227
29.79936366667971,0.602294921875,0.139312744140625,-0.0248565673828125,-0.09613265850080828,-1.666091154816766,-1.510164670889281
29.8587206666125,0.2520599365234375,-0.7463836669921875,-0.0498046875,0.5378871674787919,-0.717733631685151,-4.376943601064925
29.918082666699775,0.1767120361328125,-1.341354370117188,-0.045166015625,0.1416061341139113,-0.7809480212159259,-6.517824712917672
29.977460666676052,-0.063079833984375,-2.478652954101562,0.6294097900390625,0.4872061466701481,-1.54257134661391,-6.138327453374688
30.036825666669756,-1.357101440429688,-2.168441772460938,0.430938720703125,0.3509439115995898,-1.374077405502341,-4.776963712600277
30.096159666660242,-2.854415893554688,-0.8903350830078125,-0.00750732421875,-0.1922424138162419,-0.4183418608867701,1.54368534689789
30.155558666680008,0.4534912109375,-4.085601806640625,-0.24859619140625,1.945686850284261,2.323613111100206,0.9153977088485762
30.214921666658483,-0.2496490478515625,-0.7566986083984375,0.690521240234375,1.166001167425033,0.03739371118191159,4.069738914576579
30.274297666619532,-0.33856201171875,-0.57574462890625,-0.514617919921875,-1.234867317421174,1.117384629093418,0.9975690116507531
30.333668666658923,0.1604461669921875,-1.029266357421875,0.389678955078125,0.3372595246543266,0.1958206370568723,0.1536185885268227
30.393037666683085,0.3426971435546875,-0.9606170654296875,0.177642822265625,-0.0617139645726242,0.9806313071178492,0.2204527466112332
30.452407666714862,-0.0752105712890625,-0.9445953369140625,0.4638671875,0.2403268525620585,-0.1842649147709095,1.001959499023858
30.511777666630223,0.3147430419921875,-1.079605102539062,0.22515869140625,0.006403837157204536,0.1063093959743281,0.8600774614210143
30.5711396667175,0.222808837890625,-1.321243286132812,0.311248779296875,-0.1081158181417288,0.7912912062575757,1.758482071986013
30.63050166668836,0.3414306640625,-1.79791259765625,0.2362060546875,-0.3939571589976776,1.252957638073864,2.575064253851635
30.689868666697294,2.152572631835938,-2.472442626953125,0.7417144775390625,-0.2931277495984055,1.567446602775795,3.825140351626033
30.749238666612655,0.475250244140625,0.0525665283203125,0.7473602294921875,0.624767471720447,0.1927140596452949,4.028334216476899
30.808607666636817,1.072723388671875,0.164031982421875,0.004913330078125,-0.2619107079327148,-0.1874276848814876,-1.597970689925847
30.868057666695677,0.4225921630859375,-0.85772705078125,-0.028228759765625,0.9049304205001288,-0.5146217921958598,-4.108274322917807
30.927419666666538,0.2242584228515625,-1.366973876953125,0.1598358154296875,0.7520766918383769,-1.494330047679888,-5.268961418703696
30.98679466661997,0.2921600341796875,-2.168212890625,0.54400634765625,0.3940785991433852,-2.231086106399256,-7.026131084904518
31.046165666659363,-0.7706451416015625,-2.48211669921875,0.522003173828125,0.6557485573135567,-0.9038406549820683,-5.328815964203226
31.105532666668296,-3.46685791015625,-0.6487274169921875,-0.508697509765625,-1.107939994603561,-2.179111321933052,2.65416493191695
31.164901666692458,1.189224243164062,-1.773956298828125,0.0479583740234375,1.698124721672675,-0.6092923752582146,3.077307673300806
31.224265666678548,-0.0010833740234375,-0.208282470703125,0.73126220703125,3.86618072928859,-1.482041956094153,5.226144712594055
31.28362766664941,-0.61083984375,-0.4270782470703125,-0.3784637451171875,-1.572673855363403,0.1617438930126544,1.432182520481798
31.34300066670403,0.472625732421875,-1.151397705078125,0.5728912353515625,0.7499339124252992,0.6908756520917019,-0.8034991366944989
31.40236866660416,0.0601806640625,-0.9351654052734375,0.42645263671875,0.1618014172922002,0.7764462137092559,0.6395767779101597
31.46173366671428,0.0760498046875,-0.9569854736328125,0.3088836669921875,0.1526438715678537,-0.04591502772183813,0.8767477845804743
31.5210996667156,0.06085205078125,-1.011428833007812,0.160675048828125,0.07034367176891697,0.3604569893294619,0.9074007687272863
31.58046566671692,0.04730224609375,-1.095367431640625,0.259521484375,0.1646904144427181,0.5333368904402827,1.148562788607194
31.639839666662738,0.1541748046875,-1.5291748046875,0.2393798828125,-0.1561469936657439,1.039652549512294,2.07762144858344
31.699209666694514,1.136566162109375,-2.71600341796875,0.642303466796875,-0.2092893079538391,1.406956792320459,2.996613892271406
31.758566666627303,0.551422119140625,-1.982437133789062,0.6551666259765625,-1.015002064146412,5.277351974034099,3.192299240744902
31.817947666626424,0.6411285400390625,0.05438232421875,0.0189971923828125,-0.2122038714508218,-0.07281428631218348,-0.01635021119643247
31.87731566664297,0.4276275634765625,-0.25006103515625,-0.0557098388671875,1.187716050321321,-1.501656670154804,-3.648508855487618
31.936694666626863,0.105377197265625,-1.214523315429688,0.01068115234375,0.8907267171423002,-1.863921679548321,-4.840590892100014
31.99606666667387,-0.188385009765625,-1.685302734375,0.2781524658203125,0.5585266659269061,-1.264253968469653,-5.754442902251909
32.05543766671326,-0.585479736328125,-2.566024780273438,0.5717010498046875,0.2713814414012545,-2.155225163800022,-5.925950476453012
32.114812666666694,-3.538467407226562,-0.794647216796875,0.24530029296875,0.1596288104749135,-0.6667314336490435,-1.468841465518957
32.17418666661251,-0.747802734375,-1.3992919921875,0.0257720947265625,1.470399947388871,-0.6715954310639642,2.313638241237315
32.233564666705206,1.7781982421875,-0.969940185546875,1.553604125976562,3.399574666282423,-0.5836003275900021,3.319778370540379
32.29293466662057,-1.581085205078125,-1.871109008789062,0.6192626953125,0.4025261461211165,-0.1503538193464946,4.571360752227326
32.352304666652344,0.0019683837890625,-0.9774627685546875,0.1757659912109375,0.1413302306249791,0.417666216918217,0.06260985196332686
32.41167466668412,0.04571533203125,-0.8104248046875,0.0852508544921875,-0.1691762429828476,0.7690151953196078,0.2834934980389349
32.471047666622326,0.2972564697265625,-0.976348876953125,0.2043304443359375,0.05746462473729377,0.2728794695144241,0.3647518692194326
32.5304176666541,0.035430908203125,-0.9582366943359375,0.2238616943359375,0.2284257182827125,0.2391635837979119,0.9418556816462954
32.58976666664239,-0.0909881591796875,-0.99542236328125,0.3519287109375,0.2159647875422317,0.1021487394032973,1.185320803236903
32.64913066662848,0.146881103515625,-1.260574340820312,0.2652740478515625,0.01905385233508092,0.8538115760082758,1.418895477171175
32.7085186666809,0.27508544921875,-1.742935180664062,0.33905029296875,-0.1085158249374587,0.981397232247356,2.114527002337541
32.76788366667461,1.8280029296875,-2.308624267578125,0.9869384765625,-0.2644550920381765,1.740318248087237,3.435258894360613
32.827251666691154,0.2127227783203125,-0.44818115234375,0.8363494873046875,-1.040000624666768,3.974222511552015,3.119260449952825
32.88657266669907,0.4732818603515625,0.0365753173828125,-0.012664794921875,0.1575462185024716,0.3522906721628429,-2.91265454311335
32.945965666673146,0.5892333984375,-0.5992431640625,-0.14422607421875,0.6923861970619949,-0.4144211551299555,-4.022075255282995
33.00532766664401,0.0098876953125,-1.391525268554688,0.2171478271484375,0.9485604560066789,-1.384593962330954,-5.40971321073991
33.06469266663771,0.31622314453125,-2.05328369140625,0.0582427978515625,0.37225825506793,-0.8561165419317394,-6.408165859240351
33.1240566666238,-0.844390869140625,-2.436080932617188,0.7575225830078125,0.07945913954804018,-2.243905232306353,-6.170218807428387
33.183404666604474,-3.952972412109375,-0.540130615234375,-0.4283599853515625,-1.232568476768217,-0.7046164980520747,1.25323513945945
33.24277166661341,0.53057861328125,-3.100433349609375,0.027191162109375,1.178235196840639,-0.5592092341142934,2.064973031302218
33.30212466663215,0.0097503662109375,-0.61163330078125,0.445526123046875,2.63015014310327,0.6818331549264469,3.304392223658555
33.36148066667374,-0.4633941650390625,-0.630828857421875,-0.02606201171875,-0.8279149975683453,-0.1285369373804564,2.02624161430476
33.42085016670171,0.3194122314453125,-1.12432861328125,0.534210205078125,0.8679092855547192,-0.2502817487167747,-0.3784256035203354
33.48020516661927,0.2470245361328125,-0.90863037109375,0.212799072265625,0.02277801680344772,0.5983792737432878,0.2758725962635641
33.53956316667609,0.1761474609375,-0.9534454345703125,0.272003173828125,0.1321844028094289,0.09771244565944329,0.527670216272812
33.59893416671548,0.2334442138671875,-0.9722747802734375,0.1688995361328125,0.01807807011167589,0.3083815373740524,0.6446735356043533
33.658290166640654,0.0583038330078125,-0.999603271484375,0.3553009033203125,0.1957902770204454,0.09436272164034161,1.016985053894085
33.71766016667243,0.1851043701171875,-1.198745727539062,0.291351318359375,-0.01512622235943206,0.8168437042846679,1.310565540877804
33.77701216668356,0.2193756103515625,-1.629684448242188,0.3388214111328125,-0.1121702145852655,1.649961719674701,2.631572271125372
33.83637116663158,1.784088134765625,-2.257919311523438,0.422943115234375,-1.154366881886912,2.993085736459268,3.631004430274745
33.89573016669601,0.4130401611328125,-0.4480743408203125,0.9694061279296875,-1.150414750829235,1.275404091321597,3.667010900844834
33.955097166704945,0.3746337890625,-0.0302886962890625,0.162109375,-0.9240338076314852,-0.6641407105406145,-1.909593028030417
34.014478166704066,0.7907867431640625,-0.75347900390625,-0.0600433349609375,-0.3453299680217027,0.02245763852431119,-5.083686899563538
34.07383716665208,0.0098724365234375,-1.71136474609375,0.2957763671875,0.4055307244629439,-0.9270578270492702,-5.518406934838185
34.13319816661533,-0.1549530029296875,-2.00726318359375,0.692535400390625,0.642616509978376,-1.983045940372001,-5.791241396930188
34.19255716667976,-0.8622894287109375,-1.633926391601562,0.33502197265625,0.06929438629942575,-0.2071912696470747,-3.865833453082444
34.25191616662778,-0.989532470703125,-0.881256103515625,-0.0453033447265625,-0.3133187717189503,1.532716319000072,-2.46223091215494
34.31127616669983,-0.85272216796875,-0.8630523681640625,0.031982421875,0.1975985634006092,-0.4496308079018931,1.015526174248939
34.37063616665546,1.482696533203125,-0.905029296875,-0.8271331787109375,-0.5920212429568327,-2.040802447564768,2.731756662908627
34.42999116668943,0.3382568359375,-0.5868377685546875,1.68096923828125,-0.4799756643105829,5.718909409091418,-3.962380499448868
34.489353166660294,-0.44970703125,-1.058334350585938,-0.0327606201171875,-2.038776580923545,0.1842790295246869,3.12010200885729
34.5487101667095,0.3074493408203125,-1.1324462890625,0.0532989501953125,-0.2357259754628377,-0.4111675712262057,-0.6884090322900706
34.608076166710816,0.1511688232421875,-0.937652587890625,0.211700439453125,0.06483412410576103,0.2227404019876113,0.1009652306148661
34.667431166628376,0.14581298828125,-0.995941162109375,0.2152557373046875,0.0946040040351028,0.214226808614846,0.109600264133339
34.72678816667758,0.18798828125,-1.01116943359375,0.2142181396484375,-0.2153005951663659,0.2484348465008048,0.5130542555782391
34.786151166656055,0.0613861083984375,-1.0849609375,0.099822998046875,-0.4621378113292322,0.3549077605660637,1.061768770784857
34.845511166611686,-0.315887451171875,-0.6752471923828125,0.176605224609375,-0.6030967972982542,0.5158854621331024,1.197428066184621
34.90487616660539,-0.1063995361328125,-0.9613494873046875,0.1052703857421875,-0.7337956888516369,0.9512441234371518,0.3952706300473047
34.96424516662955,-0.1125640869140625,-1.087188720703125,0.0030975341796875,-1.037148911771511,0.7066306467845017,0.1409456701635716
35.02360816660803,-0.325653076171875,-0.8341827392578125,0.0117034912109375,-1.135250178950105,0.6567523027284077,-0.00777589775081336
35.08297916664742,0.1021575927734375,-0.90509033203125,-0.22344970703125,-1.299285988396882,0.5976690086805637,-0.3813316449018299
35.14234616665635,-0.1351470947265625,-0.88299560546875,-0.31640625,-0.6216963143513676,0.4980204449086328,-0.001521197614653261
35.201715166680515,-0.0899200439453125,-0.954193115234375,-0.27679443359375,-0.1815391693952134,0.3635049771970575,0.07584736047767472
35.26108016667422,-0.1607208251953125,-0.95709228515625,-0.158416748046875,-0.1249203646201288,0.1700620103614079,0.08653515856438072
35.320450166705996,-0.145263671875,-0.9364013671875,-0.2559814453125,0.01418506123019805,0.5458465570287118,-0.02413569632717012
35.37981816660613,-0.068023681640625,-0.9246826171875,-0.314208984375,0.02790353663741423,0.7448187789195839,-0.1073328487812455
35.43917716667056,0.0496978759765625,-1.041946411132812,-0.0261993408203125,0.2142369286269883,0.5129189669948631,-0.07590808055052853
35.49853716662619,-0.097137451171875,-0.9326171875,-0.2228546142578125,-0.2281689895536288,0.2042274376699255,0.3131467315125312
35.557898166705854,-0.1624298095703125,-0.973602294921875,-0.24957275390625,-0.2694905970272983,0.007378820432282545,0.2652018424078347
35.617258166661486,-0.1199188232421875,-0.87286376953125,-0.356964111328125,0.05598657033229979,0.143715091381145,0.05173563260031531
35.67661816661712,-0.12322998046875,-0.988128662109375,-0.2556915283203125,0.05686221769871785,0.1011718919154562,0.04687589624313872
35.735959166660905,-0.091094970703125,-0.9533538818359375,-0.2238006591796875,0.08472527428756287,0.1552495083783872,0.1656731208849573
35.795332166715525,-0.0834197998046875,-0.952545166015625,-0.21417236328125,0.06242076752593123,0.1715499184624352,0.1995916731604245
35.85469116666354,-0.1804656982421875,-0.990966796875,-0.232666015625,-0.03533056028542721,-0.01712439212531851,0.2165501503498311
35.91404416668229,-0.178680419921875,-0.8938751220703125,-0.25457763671875,-0.03459179939903922,0.1361498496725569,0.1274556939778843
35.973401166615076,-0.1039581298828125,-0.9580535888671875,-0.24920654296875,-0.02536128306082459,0.05631547072692458,0.1134181718720766
36.032757166656666,-0.1529388427734375,-0.95465087890625,-0.2362213134765625,0.005270928429484828,0.002053030884342085,0.1150970286232625
36.0921091666678,-0.1464691162109375,-0.9217529296875,-0.2408447265625,-0.0349742293315746,0.05229063537148783,0.1358419882505438
36.15146216668654,-0.160400390625,-0.945037841796875,-0.234893798828125,-0.01471130186159771,0.04706711120940641,0.03145086720939977
36.21083216671832,-0.16717529296875,-0.91259765625,-0.2695465087890625,-0.01362952582680753,0.04676564137400944,-0.002654106342372969
36.27019616670441,-0.1749420166015625,-0.9428253173828125,-0.2340545654296875,0.0339222807009933,-0.03302532804585462,0.001446096471913026
36.32956116669811,-0.1465911865234375,-0.94134521484375,-0.2442779541015625,-0.02853204265467293,0.04330646143410551,-0.03886350978752633
36.38892616669182,-0.148345947265625,-0.939178466796875,-0.254180908203125,-0.01471609555155986,0.03798120451838307,-0.03560060481996124
36.44829116668552,-0.1568450927734375,-0.9444580078125,-0.253021240234375,-0.0084864291296465,0.00291429718087371,-0.03414492096812393
36.507654166664,-0.119110107421875,-0.947265625,-0.271453857421875,0.008524246017125625,-0.003576092711758401,-0.04152667087760556
36.5670191666577,-0.239013671875,-0.947052001953125,-0.2205657958984375,-0.004935370132134844,0.09408868236417246,0.06611137616456304
