time,accelerometerAccelerationX,accelerometerAccelerationY,accelerometerAccelerationZ,gyroRotationX,gyroRotationY,gyroRotationZ
0.0,0.1092529296875,-0.976654052734375,0.182464599609375,0.009775399097244852,0.2759857806098925,-0.02542413366255046
0.0593860000371933,0.1472015380859375,-0.95660400390625,0.1883697509765625,0.02442225246046265,0.2139993746577532,-0.0620399354900499
0.11875000002328306,0.1471099853515625,-0.960357666015625,0.181640625,0.02984231791099191,0.005119660879568328,-0.01176744359262412
0.17812600010074675,0.1285247802734375,-0.9602508544921875,0.1912841796875,0.02126321077541065,-0.00524509576691106,0.01499040114383802
0.2375170000595972,0.1464691162109375,-0.9605255126953125,0.182647705078125,0.007426491015794964,-0.007579889094583528,-0.01376960810014569
0.2968889999901876,0.1302337646484375,-0.957305908203125,0.18560791015625,0.004150270242779485,-0.02218200135148799,0.01623516263734105
0.35626800009049475,0.128662109375,-0.9603118896484375,0.184600830078125,-0.003091930025581995,0.02114443379079312,-0.01302552089157755
0.4156480000820011,0.1382293701171875,-0.9619903564453125,0.1833953857421875,0.003352387180191745,0.02587766999619095,-0.07702873873723387
0.47502200002782047,0.1625823974609375,-0.961578369140625,0.1919708251953125,-0.008458732254309676,0.004722050928819497,-0.0704054571062068
0.5343970000976697,0.1396331787109375,-0.9550323486328125,0.1856231689453125,-0.05445099164776011,-0.02931208253795714,0.03120905218242058
0.59376900002826,0.1229095458984375,-0.9570465087890625,0.1549530029296875,-0.06074670446470742,-0.01142895581807505,0.008624913506330621
0.6531449999893084,0.133087158203125,-0.9578857421875,0.1781158447265625,-0.03293318267213788,0.01256745718408393,-0.03213103855180601
0.7125240000896156,0.164642333984375,-0.95721435546875,0.188323974609375,-0.04868311735886649,0.05459613392716942,-0.0912265831406643
0.771894000004977,0.16448974609375,-0.9720916748046875,0.1721343994140625,-0.08404457031293862,0.01852654643924523,0.02427205017498218
0.8312579999910668,0.10784912109375,-0.9647369384765625,0.1546173095703125,-0.1269507586352052,-0.0445730608485472,0.08357265816777658
0.890627000015229,0.130950927734375,-0.963592529296875,0.14031982421875,-0.1118740710720486,-0.01665247998015647,0.001197357226099626
0.9500049999915063,0.1329193115234375,-0.954681396484375,0.142486572265625,-0.09051498649739513,-0.006381999236265886,-0.03194887833324459
1.0093880000058562,0.128021240234375,-0.9660797119140625,0.1465301513671875,-0.07013487993945475,0.02646170122324533,-0.03549940469853823
1.0687550000147894,0.177764892578125,-0.9732818603515625,0.145751953125,-0.08067354100511631,0.05439400000043241,-0.003835484601932119
1.1281390000367537,0.2411346435546875,-1.012161254882812,0.230133056640625,-0.138237235334961,0.06149079167327556,0.1804600565215133
1.1875160000054166,0.38360595703125,-1.119903564453125,0.32086181640625,-0.5970301163350537,-0.06937561271267316,0.8521407087403601
1.2468680000165477,0.38983154296875,-1.382736206054688,0.153594970703125,-0.7858983050501652,0.3722156444904887,1.3502855232719
1.3062609999906272,0.1656951904296875,-1.113754272460938,0.2400665283203125,-0.7379230559090417,0.6503700371760327,1.586000846090377
1.365631000022404,0.1372528076171875,-0.542327880859375,0.0483856201171875,-0.1312554922212093,0.0307459284688558,0.797958696362698
1.4249990000389516,0.3675079345703125,-0.537078857421875,0.062469482421875,0.2510743054571823,0.0804410470419524,-0.9206420056671603
1.4843680000631139,0.250885009765625,-0.7277679443359375,0.045257568359375,1.177166736611299,-0.1258817657736474,-2.205540532590998
1.5437360000796616,0.08343505859375,-0.88275146484375,0.133880615234375,1.541160670184495,-0.9454216543459115,-2.853989365356648
1.6031070000026375,-0.0722503662109375,-1.12091064453125,0.193328857421875,1.242904204958815,-0.4980694470726903,-2.828152974357353
1.6624820000724867,-0.1779937744140625,-1.20892333984375,0.26812744140625,1.186883013532344,0.1144594678582976,-2.419235774252265
1.721856000018306,-0.078826904296875,-1.225448608398438,0.139984130859375,0.09220023483519728,0.8921435188422223,0.3600679014942013
1.781232999986969,2.864089965820312,-0.990570068359375,0.244049072265625,0.1424988257113058,-3.15373240710281,-0.3584572216669213
1.8406110000796616,0.3036041259765625,-0.90887451171875,0.0247344970703125,0.04408277289186362,0.06830635353500634,1.751606855315864
1.8999620000831783,-0.2001800537109375,-0.849761962890625,0.7057342529296875,0.5010588453963042,-2.135669039283353,2.707732286715022
1.9593590000877157,-0.00262451171875,-0.93048095703125,0.3388671875,0.2641898411936046,0.0759107437116186,0.3883394869942645
2.0187320000259206,0.2324066162109375,-0.9365692138671875,0.435943603515625,0.07761410154483328,0.2249385751513627,0.1137377512028861
2.0780939999967813,-0.0056915283203125,-0.9158477783203125,0.3352203369140625,-0.2131951000085493,0.5156282007718007,0.8160207875078335
2.137481000041589,-0.0105743408203125,-0.9323577880859375,0.2275390625,-0.3212784275849792,0.6146112405873208,0.6773771537905263
2.196877000038512,-0.010986328125,-0.9583892822265625,0.3065948486328125,-0.2680988290416229,0.3635694256954374,0.6609853972810886
2.256239000009373,-0.0212860107421875,-0.9883880615234375,0.338592529296875,-0.3631827347051579,0.552608323036423,0.8624423484690046
2.315595000050962,-0.0672760009765625,-1.013076782226562,0.3409271240234375,-0.4981474776926296,0.4043964841546792,1.119830476238547
2.374993000063114,0.0312042236328125,-1.221405029296875,0.267364501953125,-0.8876209386790498,0.5094896144591681,1.58322157117677
2.4343530000187457,0.0510711669921875,-1.579666137695312,0.4820098876953125,-1.497331962860625,1.120754326820695,2.021739274165872
2.4937120000831783,0.858612060546875,-1.667556762695312,0.4328765869140625,-1.835092694432104,1.335449585471286,2.279292517922999
2.553108000080101,-0.153167724609375,-0.8258056640625,0.49237060546875,-1.155055575344807,0.7462470322121935,3.90201515965226
2.6124860000563785,-0.4302520751953125,-0.5805511474609375,0.14910888671875,-0.5134633171216753,1.948102337392963,2.932943036929791
2.671857999986969,-0.337890625,-0.1691436767578125,-0.133209228515625,-0.04275332287569606,-0.2228075136470813,-1.559105582241667
2.731231000041589,-0.0906219482421875,-0.41082763671875,-0.0633697509765625,1.504372828150576,-0.6845980487701672,-3.535862467699446
2.790616000071168,-0.1265869140625,-0.78509521484375,0.0934295654296875,1.975974448729514,-2.016317877134798,-4.64227700363061
2.84999500005506,-0.25140380859375,-1.238372802734375,0.4098968505859375,1.996294900479037,-2.485042751104232,-4.7777951514926
2.9093760000541806,-0.6443328857421875,-1.538970947265625,0.239990234375,1.574918367530121,-0.09442397434541344,-5.032468985479134
2.968762000091374,-0.8349761962890625,-1.800399780273438,-0.28228759765625,1.907657442550147,0.6318131307003606,-1.935358578944716
3.0281340000219643,0.1292724609375,-1.147216796875,0.87939453125,-0.9106892400413161,-0.3391277321590172,1.729008335569888
3.08752500009723,0.42767333984375,-1.178939819335938,-1.517593383789062,-2.779345221059471,6.524569434694406,-0.09886186598592148
3.1469079999951646,-0.434478759765625,-0.885650634765625,1.480941772460938,0.08433112644623114,-0.8447903841317415,4.38701141524986
3.206287999986671,0.0910797119140625,-0.8709869384765625,0.34429931640625,-1.716562318531512,0.2653722847175997,0.5974381126140539
3.2656640000641346,0.4339752197265625,-0.85968017578125,0.3326263427734375,-1.030873438978848,-1.47694493208385,-0.1270178702946752
3.3250450000632554,0.1543426513671875,-0.967529296875,0.4829864501953125,-1.145768599991483,1.488109968637898,0.7771428966504207
3.384415000095032,-0.2443389892578125,-0.925628662109375,0.2759246826171875,-0.5512535729898997,0.5272110873008824,1.902953234800631
3.4438270000973716,-0.23248291015625,-0.900726318359375,0.255035400390625,-0.6957353884488785,0.5116997718478248,1.172915266247096
3.5031850000377744,-0.02081298828125,-1.084762573242188,0.296356201171875,-0.6277273089559611,0.6362094770278635,0.490463192683315
3.562560999998823,0.1094818115234375,-1.13189697265625,0.2977294921875,-0.9684089956110395,0.7971349806375365,1.766542927973465
3.621947000036016,0.1869659423828125,-1.668624877929688,0.44061279296875,-1.234996214417933,1.014477687727775,2.35133155804186
3.681328000035137,0.9640960693359375,-2.160202026367188,0.2542266845703125,-2.411230844647704,0.5652700561230958,1.970947998488098
3.740707000019029,-0.0513153076171875,-0.8113555908203125,0.58953857421875,-1.245418761660068,2.669715395838032,3.920190701459833
3.8000940000638366,-0.1153411865234375,-0.3019256591796875,0.1202239990234375,-0.702239893095288,1.460518554480241,1.41932637663555
3.859495999990031,-0.25372314453125,-0.14483642578125,-0.1206207275390625,1.343518430942008,-0.3036070221717583,-2.182184077198785
3.918883000034839,-0.1648712158203125,-0.564666748046875,-0.01605224609375,2.607327917825727,-1.020442902253444,-4.141336935218923
3.978252000059001,-0.0957489013671875,-1.13958740234375,0.1456756591796875,2.70653013579896,-1.057168426317854,-4.783623213222129
4.0376510000787675,-0.2372283935546875,-1.57421875,0.2372894287109375,2.555557131499023,-1.749702695136458,-5.057451034400731
4.097026000032201,-0.67742919921875,-1.453292846679688,0.228271484375,2.061759661130929,-1.080132598081499,-3.864865127710091
4.156403000000864,-1.06329345703125,-1.447036743164062,-0.3924102783203125,0.04513578678688095,1.302398158446749,0.2393366892687671
4.2157970000989735,0.3230743408203125,-0.7218170166015625,0.7923736572265625,-1.315100904214209,-1.142372803285522,2.558424290728602
4.275217375019565,0.034332275390625,-0.6719818115234375,-1.153610229492188,-1.497579636842002,9.034492768282703,1.482489633473395
4.334616375039332,-0.569183349609375,-0.81298828125,0.8497772216796875,-1.33256005568855,1.981341517274351,3.779584318019138
4.393984375055879,0.0967559814453125,-0.86578369140625,0.351348876953125,-0.6784525382387003,-2.907803861503879,-0.2187232897993358
4.453408375033177,0.23388671875,-0.82757568359375,0.2340240478515625,-0.6566859900172647,-0.6251411132213851,0.2123087999977709
4.5127963750856,0.1786651611328125,-0.973541259765625,0.515625,-0.1486922731423941,0.4544615158031878,1.133298081871078
4.572186375036836,-0.0945281982421875,-0.88519287109375,0.4016265869140625,-0.459947095016533,0.1500914979791217,1.211123638406463
4.6315753750968724,-0.0404205322265625,-0.95733642578125,0.283905029296875,-0.5757732971462592,0.6077709113274523,0.6581475328235001
4.690964375040494,-0.0660400390625,-0.95166015625,0.394439697265625,-0.4095702072043761,0.4120141901367418,0.8064131675592635
4.750356375006959,-0.1220703125,-1.0323486328125,0.36981201171875,-0.5921474767925025,0.7762025344695137,0.8385505976976858
4.809744375059381,0.2180328369140625,-1.32666015625,0.3950042724609375,-1.141821262623767,0.4722777971797089,0.7638361459477307
4.869133375003003,0.3995361328125,-1.5350341796875,0.4797210693359375,-1.711947592994622,1.033400778853333,2.407392696884682
4.928515375009738,0.7906036376953125,-1.892440795898438,0.4930877685546875,-2.561658433556394,0.9612602722969398,1.884434677844656
4.987896375008859,-0.099090576171875,-0.4332427978515625,0.5391845703125,-1.4315646671089,0.8835891791047789,4.447177550596931
5.047274375101551,-0.2775421142578125,-0.1495819091796875,0.0083465576171875,-0.7759854868406723,-0.1946621619826879,-0.05044399947162688
5.1066753750201315,-0.1895904541015625,-0.115997314453125,0.027923583984375,1.674976525477706,-0.5450007370665026,-2.822103870257347
5.16606037504971,-0.112335205078125,-0.496429443359375,-0.0469970703125,2.142145580738316,-0.7002390601683115,-3.647311498261518
5.225448375102133,-0.062408447265625,-1.079803466796875,0.1002960205078125,2.810322045594837,-1.394841007257252,-4.605041750533558
5.284833375015296,-0.213958740234375,-1.620025634765625,0.297882080078125,2.978561921138413,-1.449432880126678,-5.079752345369054
5.344218375044875,-0.6972808837890625,-1.645721435546875,0.0794830322265625,2.7076577182045,-0.03126817435862034,-4.224684289958478
5.403604375082068,-0.8496856689453125,-1.411239624023438,-0.24298095703125,0.01599707603588797,0.2124030759003597,-0.2474928864232438
5.462985375081189,0.9081573486328125,-2.017868041992188,1.144180297851562,2.912534168232078,-2.277399543020171,-2.101050874589522
5.522373375017196,0.151611328125,-0.8758697509765625,-0.1512298583984375,1.722396771847657,-0.90100811684666,3.016583339389256
5.581752375001088,-0.4005126953125,-0.7599029541015625,0.335418701171875,-0.2811366004742148,-0.2771354672524797,3.688808874367133
5.641136375023052,0.136199951171875,-0.87884521484375,0.80889892578125,1.008877858903666,-0.5888020138311448,-0.04099829971733384
5.700510375085287,0.196044921875,-0.784912109375,0.2017974853515625,-1.027049672285712,0.6084449573993513,0.3370933434023057
5.75987737509422,0.1766510009765625,-0.9436798095703125,0.346343994140625,-0.5481174344902224,0.2132957674977543,1.361742974913638
5.819251375040039,-0.0833587646484375,-0.95172119140625,0.283721923828125,-0.4830425606219182,0.4822569281003448,1.402507981719481
5.878635375062004,-0.041961669921875,-0.9172515869140625,0.3348236083984375,-0.5959589929446238,0.1732189215175879,0.8931667053330308
5.938016375061125,-0.029571533203125,-0.9992218017578125,0.3563995361328125,-0.7395246809886155,0.21990866280053,0.9586703481368377
5.997392375022173,-0.025970458984375,-1.303253173828125,0.33685302734375,-1.108371426700154,0.4108410676765619,1.404069659382704
6.056774375028908,0.210540771484375,-1.756210327148438,0.513519287109375,-1.882789909555423,0.8624463432106397,1.874117059149471
6.116156375035644,1.22723388671875,-1.989730834960938,0.71185302734375,-3.009090801978427,1.124779162176132,1.719338930284028
6.175534375011921,-0.1988525390625,-0.3057861328125,0.478271484375,-2.267149035984455,0.9359437303424285,4.436616518978113
6.23490937508177,-0.066192626953125,-0.04229736328125,-0.1476898193359375,-0.1466517591151754,0.5176178484221989,-0.1486097151486017
6.294286375050433,0.1060943603515625,-0.2753143310546875,-0.046173095703125,2.339680228272763,-0.5432686170935151,-3.367553349967528
6.353654375066981,-0.157501220703125,-0.8162841796875,0.0139923095703125,3.039352301444997,-1.314976001959084,-4.141083402283147
6.413040374987759,-0.137298583984375,-1.282470703125,0.058746337890625,3.184634130495436,-0.3873293499927974,-5.170250287635473
6.472413375042379,-0.469085693359375,-1.602340698242188,-0.0061187744140625,2.776941984491784,-1.064406365528472,-5.101148714198969
6.531795375049114,-0.9993438720703125,-1.33905029296875,0.1101837158203125,2.276698599021262,-0.9351045682829445,-2.393290726280495
6.591174375033006,-0.621002197265625,-1.235763549804688,-0.216033935546875,-0.1994356119205459,-0.02112339481818149,0.4318294402274764
6.6505673750070855,0.985076904296875,-1.745651245117188,1.0440673828125,2.886439983239264,-3.334983156151968,-2.039298027864982
6.709945375099778,0.0692596435546875,-0.6746063232421875,-0.412872314453125,1.327546388620367,0.9300733243515669,2.206365579896705
6.769341375096701,-0.3509368896484375,-0.8304290771484375,0.643096923828125,-0.1279680861716155,-1.003049264541918,3.833324245655847
6.828721375088207,0.077301025390625,-0.904876708984375,0.4435272216796875,0.6934791583733634,-1.302648495589216,0.3504538899590152
6.888078375020996,0.2830963134765625,-0.8139495849609375,0.3348236083984375,-0.9541285932138166,-0.1986188204142186,0.5293661172549745
6.9474653750658035,0.0726165771484375,-0.91180419921875,0.113800048828125,-0.9536066136401611,0.005444300216448986,1.266849751584153
7.006852374994196,-0.2208404541015625,-0.930938720703125,0.412994384765625,-0.3953318827523765,0.6044715210529531,1.679400568680546
7.066239375039004,-0.1636199951171875,-0.94000244140625,0.279052734375,-0.6009715947483709,0.0007326356158807984,0.8492336020944297
7.125616375007667,-0.030059814453125,-1.083099365234375,0.3207244873046875,-0.8227165071205107,0.4241014793762845,0.9531810404979664
7.185003375052474,-0.006072998046875,-1.347015380859375,0.390380859375,-1.512707989730306,0.7579335157076791,1.834938763721098
7.24438537505921,0.70465087890625,-1.976455688476562,0.620147705078125,-2.402619779579042,1.531012961166857,1.970956520603587
7.3037573749898,-0.1036834716796875,-1.091049194335938,0.030364990234375,-2.585826087816645,1.031363993251641,1.874056871708836
7.363131375052035,-0.769622802734375,0.061187744140625,-0.2633514404296875,-0.4760272616784315,3.140506083865041,4.684936050603717
7.422511375043541,-0.17724609375,0.1338958740234375,-0.1826171875,1.582952059274454,-0.5825680863514874,-2.289848223219637
7.481885374989361,-0.0466156005859375,-0.3716278076171875,-0.0667572021484375,2.866577062565017,-1.411420250307432,-4.416168235496266
7.541267374996096,-0.2853851318359375,-1.411865234375,0.19415283203125,3.216821095430134,-1.92562365989604,-4.657620539934992
7.600646375096403,-0.3961944580078125,-1.501571655273438,0.0516357421875,2.783584440882659,-1.207274837999081,-4.791524279544176
7.66002437507268,-0.570831298828125,-1.528564453125,0.0978851318359375,2.371573712855334,-1.406755723658158,-2.594827572301113
7.719397375010885,-0.8691558837890625,-1.278610229492188,-0.4118804931640625,0.6799476368746707,0.03933435666825233,-0.8571000473223057
7.7787743750959635,0.7996673583984375,-0.94317626953125,1.188385009765625,0.3324711610143641,0.4890722236459666,1.61173017801385
7.838142374996096,0.179046630859375,-1.059494018554688,-1.314178466796875,-1.230799605172187,7.227139559764864,1.074061922376663
7.897524375002831,-0.3986053466796875,-0.951019287109375,0.7226104736328125,-1.461338808095986,2.185670954014026,3.409534356127101
7.95689937507268,0.03094482421875,-0.8149261474609375,0.52227783203125,0.09472970523855453,-2.38556622753872,-0.1303244511041176
8.016252375091426,0.267242431640625,-0.886138916015625,0.28448486328125,-1.280939471647326,-0.2159123232687571,0.2618633036653114
8.075649375095963,0.092071533203125,-0.933258056640625,0.1755828857421875,-0.9427547648303062,0.2491275347003344,0.9497258552996977
8.135026375064626,-0.2235565185546875,-0.9730072021484375,0.3672332763671875,-0.3746886558787363,0.6980454143784133,1.695432265810605
8.194383374997415,-0.18475341796875,-0.9258880615234375,0.1744537353515625,-0.82592188780853,0.1884745735059978,0.9792288864878135
8.253761375090107,-0.01495361328125,-1.069686889648438,0.4456939697265625,-1.27239658350257,0.3607411486177733,1.085841616510302
8.31315737508703,-0.0019989013671875,-1.551895141601562,0.417877197265625,-1.672553048885734,0.7069078818539789,1.655289906067622
8.37251237500459,0.725341796875,-1.83001708984375,0.3342437744140625,-3.023362682260161,1.503148839313576,1.730080524224754
8.431907374993898,0.0181427001953125,-0.883514404296875,0.2197113037109375,-1.852133729615303,0.3661918404208385,4.061503887853836
8.491361375083216,-0.6329803466796875,0.15252685546875,0.03033447265625,-0.8152910813691517,2.040436529230991,4.640421312983042
8.550733375013806,-0.124420166015625,0.0239105224609375,-0.134521484375,0.8683124881437573,0.3871165634217,-1.723162164344946
8.610110375098884,0.01446533203125,-0.38494873046875,-0.025421142578125,2.759829576591371,-0.6919262691417382,-3.820856390696532
8.669485375052318,-0.013671875,-1.13299560546875,0.0830078125,3.279027212172204,-1.090962076338197,-4.44189490425865
8.728840375086293,-0.086578369140625,-1.572738647460938,0.204345703125,3.202657872120874,-1.358026000980215,-5.241607025883056
8.788229375029914,-0.4326934814453125,-1.715011596679688,0.304656982421875,3.189286140287586,0.0949267791592204,-3.843193388023462
8.847581375041045,-0.8422088623046875,-1.617767333984375,-0.318389892578125,-1.211210990090218,0.2341099693133776,1.084069549120963
8.906977375037968,0.47515869140625,-0.8768463134765625,0.149566650390625,-0.5362248223263645,-1.004303347099236,2.699029608904862
8.966344375046901,1.102279663085938,-1.201507568359375,-0.9880523681640625,-2.20088799016663,1.403641955711637,-0.01118421131389677
9.025742375059053,-0.2743377685546875,-1.0360107421875,1.21429443359375,1.798235610209844,0.3275483077393527,2.96256058404478
9.085118375020102,0.0750732421875,-0.866607666015625,0.5177154541015625,-1.618232552131388,-1.667960161269784,1.519499050510008
9.14450537506491,0.16845703125,-0.97509765625,0.4167633056640625,-0.5207230942532313,-0.1665767314428212,0.6976272980872709
9.203881375025958,0.0661468505859375,-0.955474853515625,0.4238433837890625,-0.5650934885428235,-0.02238307001378897,1.255613342312891
9.263250500080176,-0.165069580078125,-0.9088897705078125,0.281494140625,-0.7272459104666961,0.1666893831569316,1.437852390442577
9.322629500064068,-0.183258056640625,-0.94366455078125,0.2331085205078125,-0.6858225702393855,0.560910727734745,0.9719877514838879
9.382012500078417,-0.08184814453125,-1.117568969726562,0.3583984375,-0.7894323198167004,0.7088509241853007,0.8445309922415677
9.441392500069924,0.0318450927734375,-1.181427001953125,0.320159912109375,-1.173165603389564,0.4003093308297346,1.027892829086831
9.500767500023358,0.26544189453125,-1.91815185546875,0.570343017578125,-1.9426428571583,1.781288051980906,2.076066162506834
9.560141500085592,0.76043701171875,-1.858505249023438,0.196258544921875,-3.091106043540725,0.8851487262391292,1.746460030193177
9.619514500023797,-0.219085693359375,-0.36370849609375,0.2425689697265625,-1.79213750394578,0.8690059752916139,3.627492786061366
9.678885500063188,-0.08111572265625,-0.161376953125,-0.1039581298828125,-0.3818749297642061,0.09450253759757078,0.1053690337934211
9.738238500081934,0.0591583251953125,-0.017730712890625,-0.062774658203125,2.246034429597871,0.2323972904163476,-2.905026717119144
9.797627500025555,-0.1263885498046875,-0.622100830078125,-0.017547607421875,3.503953004150335,-1.455650029691468,-4.030592577081286
9.856994500034489,-0.2009429931640625,-1.142715454101562,0.0943145751953125,3.14176256326734,-1.07141846867865,-4.441108739104858
9.916364500066265,-0.3940887451171875,-1.59906005859375,0.19189453125,2.9247745892343,-0.812374121027188,-4.659379824151099
9.975733500090428,-0.525390625,-1.513916015625,0.0472259521484375,2.297368990138021,0.5477704246001851,-2.664390937870637
10.035111500066705,-0.8211212158203125,-1.05926513671875,-0.5368804931640625,-0.5074190067116314,1.317093747657915,0.2719593473578018
10.094486500020139,1.13177490234375,-2.090728759765625,1.452957153320312,2.571111057529521,-3.897892852600927,-2.490506226080529
10.153862500097603,0.12860107421875,-0.6610260009765625,0.78125,1.508081546284621,-0.3090465286982452,2.598514985146437
10.213232500012964,-0.941162109375,-0.5261077880859375,-1.247543334960938,-0.3965047388964474,-0.2965541726569015,4.222985193183009
10.272613500012085,0.142578125,-0.8341217041015625,1.12017822265625,1.208553687954537,-0.8956839251953737,0.2897119791842699
10.331991499988362,0.163330078125,-0.8585357666015625,0.2053375244140625,-0.7909753553522922,0.5922859611691865,0.7573465550034256
10.39134950004518,-0.024688720703125,-0.8978118896484375,0.3301849365234375,-0.4744693124407351,-0.005303418994783795,1.174458834414906
10.450735500082374,-0.1703033447265625,-0.9619903564453125,0.3245391845703125,-0.6171843868325554,0.4697994594692811,1.268279336457308
10.510097500053234,-0.0969085693359375,-0.98114013671875,0.3722686767578125,-0.6827157265116991,0.288772149635581,0.8342927357468671
10.569494500057772,-0.09063720703125,-1.093124389648438,0.30548095703125,-0.9702013030246628,0.5691635976367916,1.210525492425631
10.628869500011206,0.0444793701171875,-1.47900390625,0.4434051513671875,-1.362825283580647,0.6563086200908005,1.442812794288959
10.688255500048399,0.758758544921875,-1.743484497070312,0.4627685546875,-2.540535305054322,1.614383219091788,1.7376060848331
10.747629499994218,0.08148193359375,-0.8512725830078125,-0.0207366943359375,-2.187799086041109,1.188106203421017,3.533185990803916
10.807007500086911,-0.547637939453125,0.3182220458984375,-0.00494384765625,-0.3903288683285536,2.316201267470407,4.732442583392986
10.866384500055574,0.08599853515625,-0.12493896484375,-0.0581207275390625,1.182699720092047,0.1337807015668224,-2.398132885774477
10.925757499993779,-0.07379150390625,-0.6820220947265625,0.017242431640625,2.604527337623399,-1.599563792889932,-3.787465676949118
10.98512850003317,-0.3373870849609375,-1.338790893554688,0.1608734130859375,2.826153473010922,-2.065556796213163,-4.027378141645561
11.044508500024676,-0.3346405029296875,-1.334945678710938,0.1141510009765625,2.427760552901608,-1.216401491054782,-4.499533167099017
11.10388549999334,-0.485321044921875,-1.519485473632812,0.2552642822265625,3.019866484381105,0.1045399917460794,-3.53106984300174
11.163267500000075,-0.5258026123046875,-1.582504272460938,-0.476837158203125,0.1680523890028341,0.8668011442251373,-0.3249908741445496
11.222651500022039,-0.021820068359375,-1.250335693359375,0.5235748291015625,-1.292150314572124,-2.205862775082898,2.447589385113902
11.282028499990702,1.344589233398438,-1.571640014648438,-0.0068511962890625,-2.560910085290082,-1.196394227049453,-1.739271093146617
11.341410499997437,0.01739501953125,-0.9371185302734375,1.398147583007812,-0.5072757286449852,6.939316827057897,1.577482459027649
11.400778500013985,-0.4203643798828125,-0.7764739990234375,-0.2010040283203125,-1.942856442677725,1.471540312967643,3.832889085133728
11.460172499995679,0.238433837890625,-1.008285522460938,0.9472503662109375,0.7454171912165247,0.9747885980023243,0.07273412516337209
11.519549500080757,0.10028076171875,-0.96575927734375,0.1574554443359375,-0.8007214596775463,0.5905913917675691,1.046219638444321
11.578910500044003,-0.13946533203125,-0.9463653564453125,0.381744384765625,-0.3250926068981906,0.1022259710749096,1.494178247497753
11.638296500081196,-0.2128753662109375,-0.9151611328125,0.1760711669921875,-0.8007267859997264,0.6181939912018044,1.286808546057643
11.697683500009589,-0.1912384033203125,-1.080001831054688,0.5044097900390625,-0.5223715909679904,0.6585941449383065,0.7780584914331899
11.757040500058793,0.08514404296875,-1.254959106445312,0.384124755859375,-1.223686301900585,0.7532633964201162,0.9141875684492442
11.816427499987185,0.5937957763671875,-2.122222900390625,0.4656219482421875,-2.216212884343382,2.052318755066597,2.237096860979565
11.875784500036389,0.3760986328125,-1.453018188476562,0.03961181640625,-3.175390298351771,1.403604937772485,2.444194919988487
11.935145499999635,-0.6885986328125,0.7208099365234375,0.2027587890625,-0.7255100620681825,1.119482667400183,4.207209159517597
11.994525499991141,-0.0217742919921875,-0.0331268310546875,-0.09796142578125,0.4245435641172376,-0.8530935877783905,-2.642349551424705
12.053896500030532,-0.0172882080078125,-0.5503692626953125,0.0154876708984375,2.075502637620173,-0.4477500835400791,-4.320579394490052
12.113286500098184,-0.189300537109375,-1.325119018554688,0.161163330078125,3.049595884261878,-1.190171484846374,-4.323658541342402
12.172663500066847,-0.3155517578125,-1.477493286132812,0.16082763671875,2.945822616593632,-0.6192853546165189,-4.562371518283872
12.232033500098623,-0.428985595703125,-1.442901611328125,0.1684722900390625,2.90197313661326,-0.09478137056370207,-3.766621647729286
12.291398500092328,-0.4477386474609375,-1.436233520507812,-0.3360595703125,1.43491758692131,0.9332342302493819,-1.404888847734012
12.350769500015303,-0.220428466796875,-1.424331665039062,0.1692047119140625,-0.6866454870162201,-0.5812149342016182,0.8513502825288246
12.410138500039466,0.9593048095703125,-1.7818603515625,0.7734222412109375,0.9352078989332396,-6.09771158358989,-2.264480015939978
12.4695125001017,0.1004791259765625,-0.6182403564453125,1.561996459960938,1.995674383945048,-1.432555629350518,3.195251088497146
12.528881500009447,-0.7089080810546875,-0.718048095703125,-0.8337860107421875,-0.920802327964783,-2.880703267935124,1.217697917873433
12.588254500064068,0.116302490234375,-0.973846435546875,1.023605346679688,1.238262315178807,0.2748893571891069,0.392994692579723
12.647638500086032,0.1022796630859375,-0.9171600341796875,0.2905731201171875,-0.7599585834005754,0.6149681041733914,0.6888931949762469
12.70701450004708,-0.052703857421875,-0.9444732666015625,0.316436767578125,-0.6591579361410762,0.3471121554231838,1.074553541913892
12.766379500040784,-0.16387939453125,-0.9443206787109375,0.2357177734375,-0.7126880066838869,1.007178229495977,1.210077016098062
12.825762500055134,-0.1478424072265625,-0.9731292724609375,0.4105682373046875,-0.6960970457249113,0.6346536583190391,0.8965563767684837
12.885138500016183,0.0932464599609375,-1.229217529296875,0.23150634765625,-0.9327189085784516,0.583597664428912,0.9300520190628463
12.944513500086032,0.3037261962890625,-1.83428955078125,0.575927734375,-1.737861748297747,1.135780680639249,1.956441227398219
13.003884500009008,1.227615356445312,-1.845932006835938,0.5482940673828125,-3.363218256345097,0.4268996627336307,1.007390217118747
13.063254500040784,-0.0384521484375,0.2169952392578125,0.711212158203125,-0.5457887664330571,1.976977661512147,5.859571186282786
13.122610500082374,-0.0220794677734375,-0.0993499755859375,-0.1334381103515625,-0.5361603738279846,0.7081467843930838,1.094077708497481
13.18197949999012,0.1008453369140625,-0.4107513427734375,-0.100921630859375,2.146058829644079,0.4138927839696837,-3.567933851442834
13.241361499996856,-0.2281646728515625,-1.206466674804688,0.21142578125,3.819181262370872,-1.655786585610922,-3.845968401879325
13.300731500028633,-0.3025360107421875,-1.437286376953125,0.1067657470703125,3.014126839599767,-1.09970976157078,-4.925840809122323
13.360098500037566,-0.533416748046875,-1.684051513671875,-0.26251220703125,2.913927001482189,0.4035642463140294,-3.999150764619592
13.419471500092186,-1.036514282226562,-1.494705200195312,-0.4761810302734375,1.519954451056412,-0.5185070779101764,-1.425073478267941
13.478850500076078,0.5319976806640625,-0.9087066650390625,0.68701171875,1.019343549355459,-1.433847795111425,1.132292472243464
13.538226500037126,0.542816162109375,-0.8964080810546875,-1.047195434570312,-1.773517214236164,-2.410282759299636,-1.047598623256764
13.597604500013404,-0.318359375,-1.178985595703125,0.859619140625,0.7833304851271108,-3.17789766451808,3.659486405500924
13.656980500090867,0.0939788818359375,-0.9584808349609375,0.349151611328125,0.5741194741093201,-2.262038962484811,0.4313319617358496
13.716358500067145,0.1699066162109375,-0.936370849609375,0.32354736328125,0.5388746676109933,1.009525007048555,0.329136350697367
13.775734500028193,0.0410919189453125,-0.9799346923828125,0.2148284912109375,-0.9309596243623453,0.2946335008787364,1.176266055530634
13.835111499996856,-0.234588623046875,-0.9454498291015625,0.2479095458984375,-0.8753064817985233,0.8894848851259962,1.66750476072338
13.894486500066705,-0.2204132080078125,-1.008331298828125,0.1339111328125,-0.8791494232515077,0.9464064913170228,1.371620639396743
13.953863500035368,-0.02081298828125,-1.153961181640625,0.356170654296875,-0.6779800934613203,0.8598265916463288,0.7736339155981322
14.01324050000403,0.23736572265625,-1.5609130859375,0.5254669189453125,-1.801577344745675,0.6808483179553356,1.789820553797411
14.072617500089109,0.8192291259765625,-2.2926025390625,0.53424072265625,-2.562174554175651,1.571190208320119,2.015206540011907
14.13197950005997,-0.157470703125,-0.398101806640625,0.41058349609375,-2.790774443193655,-0.05211939411339573,3.651045250109809
14.191367499995977,-0.0994720458984375,-0.2048492431640625,-0.100677490234375,-0.4557611384151465,0.7499610766684179,0.4359935589079243
14.250723500037566,-0.05902099609375,-0.2901611328125,0.14141845703125,2.350970966030264,-0.6310674455951384,-3.319679833580046
14.310139041743241,-0.1424102783203125,-0.8458251953125,0.051300048828125,2.810445616269416,-1.059157275019926,-4.003313818035604
14.369487041723914,-0.4043426513671875,-1.35205078125,0.2644195556640625,3.450953435296668,-0.5449647843917865,-4.759081118512613
14.428884041728452,-0.53765869140625,-1.633346557617188,-0.021820068359375,3.464116375300494,0.2955751946401884,-4.37396512170178
14.488261041697115,-0.7213287353515625,-1.751708984375,-0.5062103271484375,2.930459372897183,-0.3031987595766492,-3.048024086586513
14.54763504175935,-0.038299560546875,-0.9232330322265625,0.5742340087890625,-0.4943546036681388,-2.01340997154054,1.523835209396875
14.60700504167471,0.684234619140625,-0.8498077392578125,-1.293899536132812,-2.80661119693192,2.513081043692804,1.144519577440235
14.666398041765206,-0.392669677734375,-1.711349487304688,1.004806518554688,-1.287022664209285,0.3607579265326408,2.540788305357879
14.725777041749097,0.042236328125,-0.9629058837890625,0.2672576904296875,-2.057847477489602,0.2007362997969406,1.10749205090821
14.785157041740604,0.2926788330078125,-1.113937377929688,0.520416259765625,-0.4418418606617383,0.4634387655217359,-0.1278977787188374
14.844538041739725,0.12664794921875,-1.011703491210938,0.119171142578125,-0.8671971562792321,0.4854039855604914,1.022833355647899
14.903913041693158,-0.099151611328125,-0.9879913330078125,0.167510986328125,-0.7829208909514566,0.329004524223408,1.391267844022693
14.963288041763008,-0.1638946533203125,-1.13623046875,0.3469085693359375,-0.9146227289713632,0.5996650479175781,1.072713830232865
15.022673041676171,0.183380126953125,-1.325531005859375,0.3086395263671875,-1.509276772981848,1.166983074918945,0.8647220143621125
15.082055041682906,0.6626129150390625,-1.540069580078125,0.6996612548828125,-1.771715852074835,1.082792297062161,1.109619383986965
15.141432041767985,0.2916107177734375,-1.658737182617188,0.3269805908203125,-2.559561460514066,0.8245655398653526,2.777036260394373
15.20080504170619,-1.0289306640625,0.0755615234375,-1.056838989257812,-2.588042370475809,2.561649378808688,4.951481191465388
15.260179041768424,-0.100921630859375,-0.3473358154296875,0.3080291748046875,0.7842934841772834,-0.4005862995831028,-0.5857228669787953
15.31955904175993,-0.0272369384765625,-0.2569427490234375,-0.096588134765625,1.293200132673833,-1.01529501186632,-1.695766758843519
15.378939041751437,-0.1047821044921875,-0.6713104248046875,0.1311798095703125,2.254053740272318,-1.895438593152755,-3.966634100341943
15.438303041737527,-0.2629852294921875,-1.04498291015625,0.3101959228515625,2.660818040952186,-1.768069185594189,-4.934620718604096
15.497703041764908,-0.5510711669921875,-1.410614013671875,0.3217620849609375,2.848436141851615,-0.5040077636713489,-4.656422117444457
15.557087041670457,-1.020950317382812,-1.756210327148438,-0.4477691650390625,2.548457676665089,1.627453747405787,-3.159037956626466
15.61647104169242,-0.770751953125,-1.328964233398438,-0.3531646728515625,1.75564527279286,0.9899086950912492,-1.374453177532151
15.675853041699156,0.6745758056640625,-1.972137451171875,1.111373901367188,-3.020743729644177,-0.2298976474171993,-1.814102723984536
15.735230041667819,0.2389984130859375,-0.5889434814453125,0.507354736328125,-0.4801706077023767,6.278239817035309,1.074222244674286
15.794597041676752,-0.284637451171875,-0.9090118408203125,0.37322998046875,-1.195524438637433,0.6685836621871937,3.268642481817549
15.853978041675873,-0.045379638671875,-0.90802001953125,0.333770751953125,0.9190361195298424,0.1237453779471858,0.7377329062072101
15.913371041766368,0.126007080078125,-0.8382110595703125,0.2691650390625,-0.7982548398759148,0.09811937667400739,0.2543606462423401
15.972746041719802,0.09326171875,-0.95477294921875,0.3828582763671875,-0.6141095010379499,0.1695645318697811,0.9550207521789932
16.03213104174938,-0.1050872802734375,-0.939910888671875,0.3474884033203125,-0.7114352557071136,0.5964088008527382,1.377692114049905
16.091502041672356,-0.12445068359375,-1.057052612304688,0.3728485107421875,-0.8711183946682648,0.578082524127467,1.1710350745175
16.15089804166928,-0.0737457275390625,-1.297836303710938,0.261749267578125,-1.206571230839082,0.8458138369386589,1.540989695242512
16.210274041746743,0.4527587890625,-1.893081665039062,0.630828857421875,-2.141026520448265,0.9462895785451684,1.653496000757345
16.269630041671917,0.6505584716796875,-2.01092529296875,0.424102783203125,-2.477040218344652,1.334729733028638,2.097797557001881
16.329013041686267,-0.3087921142578125,-0.014923095703125,0.0044708251953125,-1.555890081541505,1.919231274331523,4.740541256267917
16.388395041693002,0.0648040771484375,-0.082244873046875,-0.2655029296875,0.5622481672341828,0.5544328546992363,-1.405380999903459
16.447776041692123,0.08978271484375,-0.2780914306640625,-0.076080322265625,2.18764835112341,-0.08166796535615191,-1.90497244353913
16.507172041689046,-0.085784912109375,-0.684844970703125,-0.0384368896484375,3.394838500599826,-1.810575899752944,-4.075759256536812
16.56655404169578,-0.1574859619140625,-1.25152587890625,0.2010955810546875,3.80554747548632,-1.71096035917853,-4.692756689460843
16.62593904172536,-0.5535736083984375,-1.917068481445312,-0.069915771484375,3.536608685436886,-1.030958393817622,-5.753493751639404
16.685300041688606,-1.323516845703125,-1.489776611328125,-1.253082275390625,1.892877963764644,-1.424077189704142,-1.581189046632822
16.74468404171057,0.41302490234375,-0.6682586669921875,1.197799682617188,-0.1656203902953738,0.2205262498573194,2.927649205314931
16.80406004167162,0.8494720458984375,-0.8368377685546875,-0.621917724609375,-2.292622171811063,2.992334458715757,-0.2483296516377467
16.863446041708812,-0.1909027099609375,-1.003387451171875,0.9353485107421875,0.8818408138491418,-2.164339566314709,3.204935940117328
16.92282204166986,-0.08856201171875,-0.7408599853515625,0.351654052734375,-0.9599923413019531,-1.356850215358945,1.724224765619888
16.98221604176797,0.1208648681640625,-1.003326416015625,0.4122772216796875,-1.073322628858057,0.4864788373764474,0.2243659955169957
17.04159704176709,0.2382049560546875,-0.9870452880859375,0.3847503662109375,-0.8751530837197348,0.7675930672975055,0.3641878117005539
17.10095404169988,-0.1730804443359375,-0.903289794921875,0.4214935302734375,-0.5938545630512432,0.5195204107049515,1.859316275075247
17.16034704167396,-0.2366943359375,-0.9391937255859375,0.2867889404296875,-0.9697459024782593,0.1995671720783958,1.226328157701944
17.219721041736193,0.04998779296875,-1.229598999023438,0.272125244140625,-0.6999618250988343,0.7263441641215952,0.9317836064036158
17.279077041661367,0.2886505126953125,-1.775375366210938,0.593963623046875,-1.618525499851297,0.6588095946704938,1.762435800940344
17.33846504171379,0.7644805908203125,-2.178604125976562,0.4501953125,-2.782873376871608,1.699446182205572,1.661941417206204
17.39785604167264,0.0072021484375,-0.452880859375,0.5704498291015625,-1.03652093838647,1.868794998027057,4.740274407526692
17.4572170417523,-0.4170074462890625,-0.314117431640625,0.1199493408203125,-0.622115495906946,1.747849667649981,3.323089212407565
17.516605041688308,-0.0223846435546875,-0.1384735107421875,-0.061004638671875,1.982796402177861,0.4665037976203081,-2.467515689022093
17.575992041733116,-0.1699066162109375,-0.7490997314453125,-0.0201873779296875,3.199106813123362,-1.752369850968172,-3.926200923407924
17.63537404173985,-0.253875732421875,-1.130294799804688,0.1747589111328125,3.295348128596646,-1.743880758677435,-4.623348319866762
17.694756041746587,-0.63348388671875,-1.837112426757812,0.1831207275390625,3.361273083484904,-0.411212578648628,-5.167772482557263
17.75413104170002,-0.6096343994140625,-1.75799560546875,-0.4188995361328125,2.50429607420496,-0.2799919738376987,-2.363105393221101
17.81351804174483,-0.8100738525390625,-1.413726806640625,0.1355743408203125,-0.6667181178435931,-1.351105244255426,0.9024893670449622
17.87290304165799,0.6918487548828125,-2.108230590820312,0.710968017578125,1.237140591727665,-5.984415384495739,-2.447857831751782
17.93228604167234,0.108551025390625,-0.4867401123046875,1.061065673828125,1.860735739936259,0.2286366406410467,2.729182984031175
17.99167104170192,-0.597137451171875,-0.4832611083984375,-1.101638793945312,-0.7679933404093444,0.5876336850609272,3.513826407575694
18.0510560417315,0.0010833740234375,-0.8730621337890625,1.332229614257812,1.286415996112965,0.106912335645122,0.5185148010773376
18.110440041753463,0.180877685546875,-0.894500732421875,0.1924896240234375,-0.9705251434132165,0.4051895735273048,0.4406226655147
18.169821041752584,-0.00360107421875,-0.8899078369140625,0.29815673828125,-0.6648762756336943,0.5508956441393931,1.534903306887245
18.22918604174629,-0.18798828125,-0.9264984130859375,0.2573699951171875,-0.6827514128703062,0.5940023684917426,1.476860776193404
18.28856504173018,-0.147186279296875,-1.072479248046875,0.36444091796875,-0.7063470201284082,0.01537203212804637,0.9076473774442276
18.347945041721687,0.0235748291015625,-1.241897583007812,0.2487640380859375,-1.201601772244994,0.4648624914404922,0.9887949611233781
18.407332041766495,0.2647247314453125,-1.694717407226562,0.6246185302734375,-1.513536765461539,0.5271450409058483,1.443101480951123
18.466717041679658,0.75335693359375,-2.050338745117188,0.38897705078125,-2.776259682620505,2.020721946629461,1.95472029270181
18.526097041671164,-0.060882568359375,-0.65447998046875,0.585418701171875,-1.493932704045248,0.9182930975857104,3.898892869590251
18.585482041700743,-0.6670684814453125,-0.1895904541015625,0.2055511474609375,-1.450413988672263,2.933272203640525,5.194135646820175
18.644846041686833,-0.0356903076171875,0.0032196044921875,-0.058197021484375,1.187108849592783,-0.7055906823788257,-1.793032326072047
18.704232041724026,-0.2277984619140625,-0.4755401611328125,0.1279754638671875,2.507877493238898,-2.001792197601178,-3.648769845274445
18.763619041768834,-0.288787841796875,-0.940887451171875,0.15924072265625,2.957896856343833,-1.298768802513189,-4.988690878215975
18.823006041697226,-0.459716796875,-1.671951293945312,0.306671142578125,3.342817377130654,-1.230498934285116,-5.432678714084099
18.882388041703962,-0.58404541015625,-1.807098388671875,-0.0897064208984375,3.297171861311132,-0.06822539343786795,-3.874385928607124
18.941780041670427,-1.063217163085938,-1.284347534179688,-0.2082366943359375,-1.059480050144043,-3.053067314742796,2.235337576763459
19.00115904165432,0.56719970703125,-2.047531127929688,1.111297607421875,1.881226101363329,-1.85864435953222,0.5991020556631353
19.060544041683897,0.2199249267578125,-0.7271728515625,-0.074737548828125,-0.6136162836040672,5.215423891309833,0.7437314102465046
19.119918041746132,-0.1971282958984375,-0.8919525146484375,0.1612701416015625,-1.666214725491346,1.094898761061552,3.016430473942685
19.179301041760482,0.016021728515625,-0.932403564453125,0.67376708984375,1.218320564936293,0.134942905066533,0.6631361661774365
19.238686041673645,0.124847412109375,-0.72467041015625,0.220733642578125,-0.9885046765645594,0.4398072055889178,0.505252258848743
19.29806529171765,0.0925750732421875,-0.9262542724609375,0.312286376953125,-0.7588373925816521,-0.02933125729780571,1.123427874239026
19.357439291663468,-0.184173583984375,-0.9369354248046875,0.358367919921875,-0.6636059477937266,0.8014663458344414,1.273125757009034
19.41681029170286,-0.153900146484375,-0.98895263671875,0.3267822265625,-0.7311394519803919,0.196987101614327,1.013288053668837
19.476224291720428,-0.02496337890625,-1.244949340820312,0.269775390625,-0.9041069710910763,0.5755722284839583,1.11562055118735
19.53561029175762,0.2697601318359375,-1.720046997070312,0.5484771728515625,-1.796754360011542,1.076437994701232,2.075383328003338
19.594992291764356,0.91632080078125,-1.999038696289062,0.526824951171875,-2.401928955592276,2.179715060552173,2.162057503576621
19.65437929169275,0.0141448974609375,-0.7071075439453125,0.2186279296875,-2.811921540145538,0.3941025675931959,3.156864284544743
19.713770291768014,-0.6016998291015625,0.1404571533203125,0.051971435546875,-0.4006736512668574,1.148681032959593,2.311868304376848
19.77316029171925,-0.1421356201171875,0.07806396484375,-0.062042236328125,2.325356150033663,-0.09291955464562768,-2.658375389600366
19.832550291670486,-0.135894775390625,-0.409088134765625,0.0178375244140625,2.913977068910683,-1.205727275089636,-3.719184889760577
19.891941291745752,-0.127532958984375,-1.316619873046875,0.0310821533203125,3.414574654806185,-0.8520797223513973,-5.022184922613683
19.951335291727446,-0.265045166015625,-1.850509643554688,0.17645263671875,3.544591777120508,-1.325085095140916,-5.245008415227305
20.01071929174941,-0.66461181640625,-1.779876708984375,0.009521484375,2.863522949426914,-1.03475180047433,-3.50258520461447
20.070070291752927,-1.110870361328125,-1.749969482421875,-0.122039794921875,-0.855864340576509,-2.407901094336778,1.241291394602663
20.12945729168132,0.694793701171875,-2.293960571289062,0.7906951904296875,-1.818032484489057,-0.9803761762854195,-1.323474415313636
20.188841291703284,0.242919921875,-0.9509735107421875,-0.123382568359375,-1.969344775511871,2.432726815702388,-0.2238844959919093
20.24823129165452,-0.1935577392578125,-0.9114227294921875,0.2737884521484375,-0.7066032162252739,1.389289914281091,2.992312887110927
20.307603291701525,-0.0221405029296875,-0.866943359375,0.515045166015625,0.8677521590504046,0.08916795961803306,0.7753969282397647
20.366984291700646,0.1671600341796875,-0.8306884765625,0.21539306640625,-0.6916335877379385,0.367719962254326,0.2610292016118985
20.426379291689955,0.031982421875,-0.9512481689453125,0.4160614013671875,-0.4146616385763896,0.2603932387435876,1.083085777414287
20.485762291704305,-0.170135498046875,-0.947967529296875,0.3316650390625,-0.6321689290219952,0.90046856040981,1.06313177663076
20.545149291749112,-0.0694732666015625,-1.007858276367188,0.381622314453125,-0.6931963306655969,0.5583980352462553,0.8035998041837038
20.60453529166989,0.073638916015625,-1.154312133789062,0.232147216796875,-1.159099319143983,0.4547917477783576,1.066736631482291
20.66392029169947,0.1670074462890625,-1.677581787109375,0.5059967041015625,-1.674614868201673,1.024090900314634,2.206057718474692
20.72330129169859,0.816986083984375,-2.088638305664062,0.2964630126953125,-3.184279930070455,0.9026491567103669,0.9212167158303993
20.782693291665055,-0.0367584228515625,-0.6592559814453125,0.4703521728515625,-2.029769237484679,-0.3805076628605594,3.41626203367286
20.842078291694634,-0.734466552734375,-0.071319580078125,0.0770263671875,-0.7492952863958982,0.5885833683056494,2.413815708801735
20.901466291747056,-0.115814208984375,-0.09185791015625,-0.0693359375,0.423713723121569,-0.9623636199365596,-2.016526935280369
20.96085029176902,-0.1952972412109375,-0.6824798583984375,0.1634368896484375,1.844800981869879,-1.499295777848449,-3.881660086808567
21.02023429167457,-0.2925567626953125,-1.1754150390625,0.2319183349609375,2.737321071690239,-1.54919382929661,-4.785641889328409
21.079591291723773,-0.28955078125,-1.555450439453125,0.2659759521484375,3.089941176879925,-0.5862448465524508,-4.986896972905697
21.138993291766383,-0.4872589111328125,-1.66546630859375,0.09405517578125,3.380728540512368,0.2765357233749939,-3.906929757127893
21.19836929172743,-1.101058959960938,-1.255889892578125,-0.822357177734375,-0.3430050283900636,-0.2216628870105652,0.4126568109077779
21.257744291680865,0.2182769775390625,-2.236541748046875,0.7064971923828125,2.694339782225232,-2.586968583924289,-0.8847431268051101
21.3171182917431,0.3681182861328125,-0.7978973388671875,-0.262664794921875,-1.893999687215785,1.858626782669025,-0.6055032296592499
21.37649729172699,-0.0405731201171875,-0.8485107421875,0.3907012939453125,0.151882740128309,-0.9105893715004382,2.96052859213305
21.43587329168804,0.0930328369140625,-0.9360809326171875,0.2749176025390625,0.4697576478401669,-1.211481034624752,1.343828422892894
21.495242291712202,0.06475830078125,-0.8174896240234375,0.2817230224609375,-0.8752409680357074,-0.1753441240674711,0.5451346940693337
21.554628291749395,0.045074462890625,-0.9670867919921875,0.3004608154296875,-0.5252451417841858,0.03031636058502601,0.856403897013359
21.614015291677788,-0.17572021484375,-0.970062255859375,0.3327789306640625,-0.5917543942156067,0.67333074683026,1.224475662847684
21.673400291707367,-0.106292724609375,-1.05816650390625,0.363616943359375,-0.6747704517155567,0.616837110626409,0.6889123697360955
21.732787291752174,0.1535186767578125,-1.104949951171875,0.30865478515625,-0.994272550853453,0.6089245927116747,0.7677270243003366
21.79216929175891,0.026123046875,-1.470718383789062,0.429718017578125,-1.429111895744937,0.6842129556765417,2.181142781212564
21.85155329166446,0.71575927734375,-1.867828369140625,0.363250732421875,-2.75478288632567,1.267563212440185,1.246754603262851
21.91093629167881,0.3235321044921875,-0.7666168212890625,0.525848388671875,-3.255575415612967,0.05165147670986881,1.628736592102878
21.970316291670315,-0.5401458740234375,0.1548614501953125,0.0155487060546875,-1.843249424218799,2.651884733391625,4.71313786128322
22.029695291654207,-0.1586761474609375,-0.0150146484375,-0.0669097900390625,1.169066465839714,-0.5016681766537143,-2.171553270759407
22.089077291660942,-0.0824127197265625,-0.54656982421875,0.016815185546875,2.350895332255305,-1.698011271010238,-4.197935499969723
22.148459291667677,-0.3405303955078125,-1.152923583984375,0.1715850830078125,2.562063766674304,-1.440308091283739,-4.665412416652346
22.207838291767985,-0.3531494140625,-1.487396240234375,0.15380859375,2.77731056598665,-1.021568886762329,-5.426720690093374
22.267220291658305,-0.54302978515625,-1.647979736328125,0.2378082275390625,3.391928198160588,-0.1841946073181314,-4.832372376976029
22.326601291657425,-0.9018096923828125,-1.334701538085938,-0.8294219970703125,1.078547750916792,0.3462285185734955,-0.9807463556769406
22.385989291709848,0.371490478515625,-1.608245849609375,0.4268646240234375,0.7965871684013072,-0.7022172562260224,1.739141130885421
22.44537029170897,0.6396331787109375,-0.6963653564453125,-0.7519378662109375,-1.542093309198241,3.74071574822554,0.3001643538306129
22.50475329172332,-0.0329742431640625,-1.1058349609375,0.6618804931640625,1.493899680847731,-2.305475386180113,2.341268004914669
22.564137291745283,0.01507568359375,-0.9402618408203125,0.1544647216796875,-1.003263382693561,-0.3398563730332629,1.613855913195952
22.623518291744404,0.1000823974609375,-1.050308227539062,0.4022369384765625,-0.4533658913307292,0.6172163447656364,0.8083924288814105
22.682893291697837,0.0039520263671875,-0.936279296875,0.3700103759765625,-0.5411037334433897,0.571127945256834,1.218165568960851
22.742280291742645,-0.11199951171875,-0.9131011962890625,0.240753173828125,-0.7342313820059739,0.6932346801852941,1.021668488987098
22.801637291675434,-0.055389404296875,-0.9952392578125,0.3157958984375,-0.5516264155425108,0.3067833744038959,0.752080952896121
22.861022291705012,-0.0785064697265625,-1.21124267578125,0.3460540771484375,-0.956798145890512,0.6819559266526996,0.9918437479393007
22.92041229165625,0.1366424560546875,-1.311508178710938,0.388275146484375,-1.611540028312019,0.7904733494868122,1.755656990701657
22.97980029170867,0.480560302734375,-1.73602294921875,0.59228515625,-2.230832573463481,1.368507670398549,1.914205090406216
23.039186291745864,0.9933624267578125,-1.598831176757812,0.7688140869140625,-2.681494291023343,-0.7351192799134063,2.612983406716619
23.098569291760214,-0.701141357421875,0.316741943359375,-0.557769775390625,-1.541409409430308,1.608273661235037,4.90599546531127
23.157941291690804,0.0486297607421875,-0.1561431884765625,-0.1591644287109375,0.354882194219599,-0.5678479960582924,-1.393096370427142
23.217335291672498,-0.0673370361328125,-0.4046173095703125,0.0362091064453125,2.198428827216051,-1.413346781039995,-3.408117554427179
23.276719291694462,-0.2445526123046875,-0.8325958251953125,0.06719970703125,2.536966136561397,-1.496061635020657,-4.002885049100102
23.33612629165873,-0.255584716796875,-1.37835693359375,0.1504364013671875,2.828002772071873,-1.550314221167206,-5.125609316179128
23.395513291703537,-0.3238677978515625,-1.517684936523438,0.151123046875,2.776017334961308,-1.181187044592882,-4.362257865549792
23.454902291763574,-0.774993896484375,-1.53619384765625,-0.0150299072265625,1.165278385505185,0.4864500752366746,-0.7104482882071302
23.514289291691966,-0.71630859375,-1.432601928710938,0.23663330078125,-0.8703950801161993,-2.081166382310445,1.300568034145646
23.573676291736774,0.7240142822265625,-2.039443969726562,0.5755462646484375,-1.685996686068454,-3.43324368036375,-2.090447232393262
23.633065291680396,0.3205718994140625,-0.74932861328125,0.8774566650390625,1.422018299865402,-2.175671583069106,2.459183190603453
23.692446291679516,-0.23406982421875,-0.6324310302734375,-0.3126678466796875,-0.9695727970074042,0.9547584308116204,3.267722625977036
23.751836291747168,-0.0090484619140625,-0.796112060546875,1.166732788085938,1.249065161824604,-0.08146769564217794,1.07590962354096
23.811224291683175,0.1380157470703125,-0.9511871337890625,0.3108978271484375,-0.7320571772920332,-0.265784542054344,0.8222674981607233
23.87060629168991,-0.0451812744140625,-0.8677520751953125,0.2853851318359375,-0.6796142091061929,0.5560185008122694,1.265167166407441
23.929966291761957,-0.1217803955078125,-0.942047119140625,0.2871551513671875,-0.62688734794815,0.4215009025718221,1.087604629151934
23.989348291768692,-0.100616455078125,-1.076461791992188,0.453125,-0.5854368434777207,0.390577607574367,0.967518434542517
24.04873429168947,0.062164306640625,-1.1925048828125,0.27423095703125,-1.346554967216917,0.4621852155966356,1.240309220792641
24.108118291711435,0.42327880859375,-1.834884643554688,0.594482421875,-2.677867598250874,1.596138967728091,1.548012983669269
24.167496291687712,0.8970184326171875,-1.935943603515625,0.40704345703125,-3.239158092757064,0.06786320352961717,0.9367962082073629
24.226877291686833,-0.053466796875,-0.393524169921875,0.561492919921875,-1.513409998993651,-0.1306999568178188,3.608806982588935
24.28624074999243,-0.2771759033203125,-0.4799346923828125,-0.0650177001953125,-0.05637752238032342,-1.393687858505248,2.074668535566761
24.345627750037238,-0.039581298828125,-0.23223876953125,0.0467987060546875,2.062807881335984,0.4394530051639373,-2.982009649485629
24.405014750082046,-0.1930999755859375,-0.904541015625,0.029022216796875,2.754107508673226,-0.8408246709525045,-4.326584822748181
24.46438175009098,-0.2634429931640625,-1.420852661132812,0.0885467529296875,2.826898092851708,-0.5535566747006002,-4.619644928054898
24.523776750080287,-0.283599853515625,-1.509140014648438,0.0422821044921875,2.844165496727564,-0.7614004188147443,-4.811337665422148
24.583150750026107,-0.8560638427734375,-1.605636596679688,-0.0384063720703125,1.773575271147928,0.1810339677364254,-1.894207413780811
24.642539750086144,-0.7010345458984375,-1.564559936523438,-0.0832672119140625,0.02320785100338651,-0.726707152978173,0.2521193298689294
24.701913750031963,0.785552978515625,-2.113723754882812,0.988128662109375,1.961002689713307,-5.709063169909176,-1.814215109382537
24.76129175000824,0.1657867431640625,-0.793701171875,0.0781097412109375,0.4377251462486939,3.55957046035555,1.89234479891441
24.820669750100933,-0.0950469970703125,-0.8509368896484375,0.1507110595703125,-1.569008280439017,0.3907536425224213,2.472108044005826
24.880042750039138,0.0242156982421875,-0.9038543701171875,0.4463958740234375,0.2545284253910151,-1.24826887665867,1.315354437149984
24.93942875007633,0.1214752197265625,-0.8254241943359375,0.26617431640625,-0.9155084963499235,-0.1419084028976353,0.466936294981337
24.998809750075452,0.020416259765625,-0.8968505859375,0.358978271484375,-0.5608324307986967,0.6827711202623727,1.221188256798091
25.058162750094198,-0.0518035888671875,-0.9495849609375,0.376373291015625,-0.6580458000698591,0.368057651080548,1.161726793875455
25.117651750100777,-0.1427764892578125,-1.214309692382812,0.3269195556640625,-0.7096477419834525,0.5118347941150918,1.305078896400023
25.17702675005421,0.1414031982421875,-1.209808349609375,0.400848388671875,-1.217113620330269,0.1193194705315832,1.198318627253144
25.236415749997832,0.175567626953125,-1.828079223632812,0.520751953125,-1.619224313321334,1.030373297326131,2.214541484443248
25.295796749996953,0.995849609375,-1.748794555664062,0.6820526123046875,-2.870756627579787,1.505747019273057,1.107637459503728
25.355177749996074,-0.04864501953125,-0.45751953125,0.1810760498046875,-0.9051365491685009,1.605982277433132,5.713204385404249
25.41455975000281,-0.27935791015625,-0.40380859375,-0.1451263427734375,-1.104114097381553,2.161693449455607,4.192336470093941
25.473946750047617,0.0742034912109375,-0.240814208984375,-0.012481689453125,1.304739077044929,1.218790612868692,-2.449484490545603
25.53332575003151,0.0059814453125,-0.6987457275390625,-0.0515899658203125,2.28456184845583,-1.125700083281082,-4.746823653279415
25.592711750068702,-0.2332763671875,-1.382278442382812,0.2851104736328125,2.930700122659726,-1.647044493016628,-4.852689632932244
25.65209774998948,-0.41015625,-1.602798461914062,0.076568603515625,2.890366547950476,-0.2547707730502123,-5.299758213549372
25.7114787499886,-0.6292724609375,-1.62451171875,0.0090789794921875,2.900120109126783,0.5187686003292221,-3.100808472024102
25.770833750022575,-1.01727294921875,-1.271041870117188,-0.2751312255859375,-0.8715445004426774,-2.439015604300501,2.41624930540585
25.830243750009686,0.7532501220703125,-2.02288818359375,1.212020874023438,2.199965471165027,-2.823413346565339,-0.2705388172323535
25.88962775003165,0.12310791015625,-0.661346435546875,0.6255950927734375,0.04676138031626531,5.627255654911904,1.775551336676767
25.949007750023156,-0.39483642578125,-0.5990753173828125,-0.6365509033203125,0.4484880454781401,-1.616748638771996,3.833968730639646
26.008392750052735,0.013427734375,-0.7613067626953125,1.280746459960938,0.6613811430190744,-1.512729295019027,0.8579932715519183
26.067770750029013,0.0957183837890625,-0.8968505859375,0.0980224609375,-1.205146972288107,0.3678544518893749,0.828912617712689
26.127151750028133,-0.058135986328125,-0.970855712890625,0.2922515869140625,-0.6455944567093026,0.3439126336895626,1.563843345820918
26.186536750057712,-0.237884521484375,-0.9747772216796875,0.2733154296875,-0.6817910769812237,0.5878025294740381,1.618694344264408
26.245918750064448,-0.074371337890625,-1.10638427734375,0.34259033203125,-0.6293166834945203,0.5685968769568227,0.898382240011842
26.30528775008861,0.1745452880859375,-1.237869262695312,0.3372802734375,-1.448129529089193,0.6220848695544101,1.387723709244016
26.364674750017002,0.3518218994140625,-1.812362670898438,0.4509124755859375,-1.589111418243589,1.108701126043106,2.312820118150442
26.424053750000894,0.83038330078125,-1.708404541015625,0.5289459228515625,-3.041937698231246,1.318942514086648,1.070180098771764
26.4834337499924,-0.467498779296875,0.05029296875,-0.255645751953125,-1.238156853999639,2.741812759184767,4.877642919714068
26.542811750085093,-0.2156829833984375,-0.4322967529296875,-0.289703369140625,0.9607449506260095,-0.1134341508386171,-1.585425070662702
26.602196749998257,-0.007110595703125,-0.197418212890625,-0.0838165283203125,1.947308182755901,0.3409546606668116,-2.864793809899099
26.661573750083335,-0.2246551513671875,-0.9806060791015625,0.0619354248046875,3.245167249440719,-1.464210761015527,-4.005037415893104
26.720952750067227,-0.34075927734375,-1.263885498046875,-0.0079193115234375,3.099841744548403,-1.207637027907331,-4.845733456164957
26.78033175005112,-0.4354400634765625,-1.729568481445312,-0.1020660400390625,2.929920349092551,-0.4659895412138138,-5.383747390111637
26.839711750042625,-0.7874755859375,-1.682769775390625,-0.1426239013671875,2.894833201730757,-0.599123627267965,-2.638667997533779
26.899069750099443,-0.7276153564453125,-1.379058837890625,-0.0277862548828125,-0.9238042431455203,-1.527232603999489,2.29957568541726
26.95847475004848,0.94451904296875,-2.287887573242188,0.791961669921875,2.409867838801802,-2.768214006651267,-0.08238542095381925
27.017845750087872,0.2574920654296875,-0.740875244140625,1.07159423828125,-0.1878551222364453,6.450627832292793,1.448719685586754
27.077213749988005,-0.211090087890625,-0.761749267578125,-0.1298828125,-1.462572916945128,0.2572776065843039,3.404161162311758
27.13660475006327,-0.22955322265625,-0.729888916015625,0.8818817138671875,1.121281366400422,0.3484495949226216,0.7460073477140863
27.195990750100464,0.1991119384765625,-0.9124298095703125,0.233856201171875,-0.8801529023502496,0.08310074602261454,-0.03330495996031294
27.255371750099584,0.1455078125,-0.9396820068359375,0.3087158203125,-0.6177766738589889,0.06895989326651179,0.9913036588702326
27.31473475007806,-0.146209716796875,-0.962371826171875,0.1517791748046875,-0.4082599319480572,0.087351151122381,1.587036815754418
27.374116750084795,-0.2223663330078125,-1.021881103515625,0.3715057373046875,-0.6178080991598519,-0.1330818880967856,1.335686606808303
27.433494750061072,0.0595550537109375,-1.2548828125,0.2999267578125,-1.116516438578052,0.4410210744137759,0.9645820331245957
27.492892750073224,0.357025146484375,-1.757965087890625,0.7360687255859375,-1.75468706743265,1.19289989338316,2.043207015713
27.55227475007996,0.61016845703125,-2.063491821289062,0.292694091796875,-2.668748402046225,2.017426551096597,1.979322574851962
27.611652750056237,-0.1474761962890625,-0.457672119140625,0.371612548828125,-1.589209422571704,1.25713294203089,3.735225109006124
27.671028750017285,-0.199676513671875,-0.4272003173828125,-0.0794219970703125,0.1556734836239278,0.03919374176269615,-0.08136809341740898
27.73038175003603,-0.0313873291015625,-0.1643829345703125,0.0004425048828125,1.048882266902182,-0.7199371311710826,-2.266198287475297
27.78976875008084,-0.2849884033203125,-0.7518310546875,0.0865020751953125,2.619902299228645,-1.704950137230439,-3.562456794344977
27.849146750057116,-0.267913818359375,-1.137954711914062,0.141998291015625,2.984053359306156,-1.367564378740443,-4.706522036503245
27.90855775005184,-0.5378875732421875,-1.644058227539062,0.4319610595703125,3.356478860890543,-0.2473818326057875,-4.780528620035457
27.96792575006839,-0.6478729248046875,-1.610809326171875,-0.1912994384765625,2.908056329175219,0.8080203852771264,-3.553805781859964
28.027319750050083,-0.6998443603515625,-1.265060424804688,-0.34051513671875,-0.520007236552218,-1.615585902640067,1.082415193451806
28.08669975004159,0.9185638427734375,-2.196121215820312,1.368576049804688,-1.700427290751158,-7.011100736344329,-3.255448649145079
28.14609075000044,0.07586669921875,-0.373046875,1.233367919921875,-1.190261499691218,8.779334238977775,2.054638901008274
28.205467750085518,-0.771087646484375,-0.32672119140625,-1.408248901367188,-2.178543535988647,0.8639779271535443,3.405660522005472
28.264851749991067,0.060699462890625,-0.6839599609375,1.512191772460938,1.437842803062653,0.6129840491612824,0.3669740108329947
28.324236750020646,0.1077117919921875,-0.9399261474609375,0.074676513671875,-1.264836934432271,0.3164442575742673,0.5182090701841965
28.383616750012152,-0.0054931640625,-0.9547271728515625,0.391693115234375,-0.4662199046481056,-0.522729519818497,1.297420177737173
28.44300375005696,-0.235748291015625,-0.931610107421875,0.2783660888671875,-0.6650674905999621,0.502661802056423,1.486403947643594
28.502389750094153,-0.2310791015625,-1.001296997070312,0.305755615234375,-0.5253276997779783,0.4954020249248669,0.9472038417473926
28.56177775003016,0.03363037109375,-1.178375244140625,0.3583221435546875,-0.790665363401407,0.6693892684169427,0.8268454720745695
28.62116775009781,0.14306640625,-1.626663208007812,0.4989776611328125,-1.503318216358905,1.210018959186298,2.02181757110192
28.680554750026204,0.6898651123046875,-2.175460815429688,0.326080322265625,-2.614448677948381,1.974881221102037,1.628070269198141
28.73993275000248,-0.0686798095703125,-0.6123046875,0.4628753662109375,-2.353996849660811,1.035607474132573,2.43904543170471
28.799325750092976,-0.25146484375,-0.0098419189453125,0.281280517578125,0.3868438557260759,1.575413449176767,2.661407132185312
28.85871275002137,0.130584716796875,-0.185028076171875,-0.1114501953125,2.462068459328445,-0.4498132344365635,-2.479566492954702
28.918097750050947,-0.14495849609375,-1.0975341796875,0.1138916015625,2.71363598221951,-1.80789782496076,-4.489676275272416
28.977480750065297,-0.24029541015625,-1.18780517578125,0.135467529296875,2.62153854540239,-1.001727005060694,-4.669157353777216
29.03686675010249,-0.4231109619140625,-1.614761352539062,0.2159576416015625,3.540395700506979,-0.7754182335284854,-4.717058567040035
29.096256750053726,-0.7339935302734375,-1.668624877929688,-0.2853546142578125,1.285344340090318,-0.3947196220177673,-1.686628387879021
29.155644749989733,-0.70538330078125,-1.190765380859375,0.147674560546875,0.04808603664247073,-2.531992949541784,0.2400706564651929
29.215007750084624,0.4931640625,-1.579544067382812,0.3354949951171875,-1.427290826191541,-3.32929437774745,-1.170535465497001
29.274444250040688,0.0144500732421875,-0.641815185546875,1.45648193359375,1.969498173590659,-2.090397697596987,2.800652107676759
29.333828250062652,-0.555633544921875,-0.6515655517578125,-0.9869537353515625,-1.925663074680173,0.8767120982218672,2.518809236881455
29.393209250061773,0.0893402099609375,-0.719512939453125,1.287521362304688,1.222037272553608,0.6753970935200524,0.2617264171852813
29.452613250003196,0.1996612548828125,-0.916412353515625,0.1385650634765625,-1.023596617616316,0.4815493261987108,0.7712503864225113
29.512004250078462,-0.018402099609375,-0.9565277099609375,0.3654022216796875,-0.4240141276925299,-0.138472126143106,1.271882593412185
29.57139225001447,-0.172027587890625,-0.9632415771484375,0.1801605224609375,-0.7622196071660526,0.4318784423915339,1.377351762062593
29.63078225008212,-0.1499786376953125,-1.0357666015625,0.548797607421875,-0.5357843354820654,0.2906515424168499,0.8567245416086045
29.6901682500029,0.0622711181640625,-1.174285888671875,0.2224578857421875,-0.9799090578302196,0.7602198395035121,1.064516620397601
29.749555250047706,0.3044586181640625,-1.592300415039062,0.600921630859375,-1.534661491860265,0.8483270620593667,1.837128947401579
29.808944249991328,0.575225830078125,-1.989151000976562,0.2783203125,-2.731440279371126,1.550600244668281,1.789383795378638
29.86832524999045,-0.060516357421875,-0.349273681640625,0.6238555908203125,-1.158266282355007,2.038036754772721,4.855599402739265
29.927718250080943,-0.18804931640625,-0.5740814208984375,0.0102081298828125,-0.201524062847386,-0.004351338905080467,2.470710417065752
29.987109250039794,-0.059539794921875,-0.311798095703125,0.029632568359375,1.905716530747698,-0.5724195783855225,-2.476341937506834
30.04647725005634,-0.2084808349609375,-0.7844390869140625,0.057403564453125,2.662501158761116,-1.540479433577653,-4.179275795475974
30.10586524999235,-0.2877349853515625,-1.171829223632812,0.174346923828125,2.856437875662867,-1.303365684870775,-4.455737482972664
30.165247249999084,-0.431732177734375,-1.642852783203125,0.2339630126953125,3.322149649174985,-1.055717536155979,-5.135098691775299
30.224633250036277,-0.5236358642578125,-1.605117797851562,-0.2532196044921875,2.151588617331519,0.371587937421557,-2.328888566903545
30.284022250096314,-1.08953857421875,-1.748291015625,0.076507568359375,-0.264505692098888,-0.7526631199104123,0.4654513163575088
30.343411250039935,0.6125640869140625,-1.7376708984375,0.592559814453125,0.8702033325177135,-4.44685850389834,-2.187858208217308
30.40279725007713,0.20391845703125,-0.7694854736328125,0.8493804931640625,0.9857882522526786,1.603845623290562,1.86621173176968
30.46217825007625,-0.4170684814453125,-0.5687713623046875,-0.71014404296875,-0.7975602874636222,0.5960346267195821,3.127864058170435
30.521564249997027,-0.0120391845703125,-0.722503662109375,1.228240966796875,0.9589846011454671,0.244612145072105,0.7225614101092467
30.580951250041835,0.2081756591796875,-0.9530029296875,0.2401123046875,-0.9183314471054075,0.1779883767138108,0.4772624357920102
30.64033325004857,-0.01031494140625,-0.911773681640625,0.3065643310546875,-0.5593794101079494,0.3338317700152856,1.534149632298752
30.699708250002004,-0.1922149658203125,-0.9082489013671875,0.1759033203125,-0.7202401989031336,0.2636122015531664,1.103159620446869
30.75910725002177,-0.1055450439453125,-1.037460327148438,0.457794189453125,-0.5424523582194059,0.2279370282226829,0.8510179200247827
30.818478250061162,0.038299560546875,-1.19189453125,0.3087615966796875,-1.189814621260303,0.2677986907867709,1.177507088598611
30.87786624999717,0.2720947265625,-1.630615234375,0.5262908935546875,-1.473673505000797,0.8967976591632448,1.690594367374367
30.937243250082247,0.82861328125,-1.83477783203125,0.4000091552734375,-2.507495063306362,1.372133564222692,1.626242808058128
30.99663725006394,-0.1573944091796875,-0.4960479736328125,0.424041748046875,-1.407475309784697,0.5045188242845352,3.995165610364398
31.056033250060864,-0.084136962890625,-0.3636474609375,0.0164031982421875,0.3021947478456893,-0.3916098488128817,-0.939925955120424
31.11541325005237,-0.0297698974609375,-0.2415924072265625,0.0873260498046875,1.683349503944915,-0.2814417987351379,-2.325100486569016
31.174805250018835,-0.2164459228515625,-0.929107666015625,0.07257080078125,2.513234175455483,-2.041357716652049,-4.040582094330174
31.2341892500408,-0.3367767333984375,-1.307525634765625,0.1171112060546875,2.102193903329383,-1.454332031267987,-4.96925406331614
31.293566250009462,-0.365020751953125,-1.543289184570312,0.05731201171875,2.428383732596687,-1.37373385772172,-4.99557248647274
31.352963250014,-0.810760498046875,-1.472549438476562,0.4115447998046875,2.488066237889798,-1.088363363746498,-2.715534816076736
31.412340250099078,-0.662139892578125,-1.622604370117188,-0.2608489990234375,-0.5868621672931311,-1.551662845943222,1.201059552647054
31.47173425008077,0.5760650634765625,-1.8779296875,1.111190795898438,1.573310350863931,-1.67555523038258,0.5329842879119561
31.531124250032008,0.0582427978515625,-0.822906494140625,0.0933380126953125,-0.7195333959498266,6.787208783501367,0.9981458523428642
31.5905102500692,-0.0009307861328125,-0.758575439453125,0.09429931640625,-1.524876505383096,-0.2255135516307108,2.360612674440786
31.64989525009878,0.0727386474609375,-0.809967041015625,0.8607940673828125,1.144301198230849,0.9643753718240055,0.7200367333958516
31.709289250080474,0.180999755859375,-0.843414306640625,0.1569976806640625,-1.01949641480203,-0.06643974392696982,0.435144010520189
31.76868125004694,0.0836029052734375,-0.9484100341796875,0.3122406005859375,-0.381537240937984,0.5445003290976768,1.265433482516449
31.828066250076517,-0.0615386962890625,-0.9473876953125,0.2870941162109375,-0.5548839941878957,0.3571898233041526,1.290868801455578
31.88744525006041,-0.0702056884765625,-0.9460296630859375,0.4420623779296875,-0.5599615771222408,0.6105099725085987,0.976828845713434
31.946820250013843,-0.0090484619140625,-1.160446166992188,0.13531494140625,-0.9122477219112305,0.6629888933691552,1.146629333655796
32.00620525004342,0.300048828125,-1.696670532226562,0.594451904296875,-1.365641310117297,0.7517142356140171,1.538755835720153
32.06560225004796,0.8160247802734375,-1.663772583007812,0.3353424072265625,-2.867796790344273,1.504107577306004,1.528687488903
32.124986250069924,0.16339111328125,-0.94775390625,0.6778106689453125,-1.405006026821976,0.0819199003952734,3.782385430853683
32.18438525008969,-0.3005218505859375,0.12408447265625,0.52825927734375,-0.1908794079703393,-0.402642792576862,3.096529304784562
32.243775250040926,0.0305938720703125,-0.0973358154296875,-0.0052490234375,0.6467923465676203,1.810630760871399,-1.57588775816691
32.30314225004986,-0.058502197265625,-0.69775390625,0.0360565185546875,1.977407762028195,-0.6464594514313604,-3.750308188155897
32.362541250069626,-0.44024658203125,-1.084564208984375,0.2560577392578125,2.55177544275111,-1.044523737462158,-3.998266595137686
32.421934250043705,-0.3324432373046875,-1.304412841796875,0.1417999267578125,3.242975467863584,-0.6068979271221243,-4.623125679599632
32.48130225006025,-0.4322357177734375,-1.553054809570312,0.1945343017578125,3.581661914229975,0.2032548512398285,-3.956124734048272
32.540691250003874,-0.6099853515625,-1.748611450195312,-0.586334228515625,1.052462620671684,0.01776142025806546,-0.7660865170688477
32.6000792500563,0.3043975830078125,-0.5894622802734375,0.34307861328125,1.552361925729368,-1.830269177065753,0.5719878799728206
32.659462250070646,0.7056732177734375,-0.8199310302734375,-0.174896240234375,-1.379970714678577,-2.029008904993461,-1.05055526469897
32.7188532500295,-0.067413330078125,-0.9418792724609375,0.97174072265625,0.7664945133478478,-2.934047449833847,3.351940834393048
32.77823925006669,-0.1005096435546875,-0.82550048828125,0.33966064453125,0.2329775932178759,-1.804791513865292,1.088052040215067
32.837623250088654,0.1185150146484375,-1.038742065429688,0.3400726318359375,1.119603042281454,0.668091243701638,0.606044916624972
32.89700925000943,0.19781494140625,-0.9848480224609375,0.3494720458984375,-0.7291095905975336,0.1333889505704718,0.6665071954852588
32.95639225002378,-0.1069183349609375,-0.92095947265625,0.398101806640625,-0.5443437352255801,0.1346614089393116,1.604571601003717
33.01577225001529,-0.2093658447265625,-0.9471435546875,0.264556884765625,-0.6065360035299825,0.2350628483514079,1.279401229801697
33.07514825009275,-0.1212615966796875,-1.122573852539062,0.1816558837890625,-0.7194843937857691,0.4406588845055251,1.181149227705403
33.13453025009949,0.1203155517578125,-1.32672119140625,0.4736175537109375,-1.2227318249659,0.556036610307682,1.445050382236843
33.19390525005292,0.61920166015625,-1.758529663085938,0.43048095703125,-1.802979765375711,1.586533478308393,2.086807223815342
33.25328525004443,0.7105712890625,-1.15240478515625,0.501617431640625,-3.371779253985266,0.4345575824481536,1.151198252821936
33.31266425002832,-0.735076904296875,0.3094329833984375,-0.3509674072265625,-1.609697120837684,3.280178763027555,5.323471532527655
33.37202025006991,-0.00469970703125,-0.224212646484375,-0.1251678466796875,1.039238427962787,-0.02624065885276875,-2.279185458847178
33.43143325007986,-0.040802001953125,-0.360687255859375,0.0673065185546875,2.593860312193196,-1.155031873211105,-3.985302859583399
33.4908152500866,-0.216949462890625,-0.9049835205078125,0.141082763671875,3.190009454839652,-0.9857086237360853,-4.342903076011532
33.550173250027,-0.367767333984375,-1.48480224609375,0.312286376953125,3.526350721550119,-0.8703913516906732,-5.133850201856269
33.60957025003154,-0.4483795166015625,-1.72869873046875,0.06304931640625,3.376326867862685,0.3077021649799732,-3.381786880729566
33.668940250063315,-0.536590576171875,-1.638504028320312,-0.62744140625,1.739864445437487,-0.6458570443927845,-1.575989490920551
33.72831325000152,0.0980377197265625,-0.52056884765625,0.5665435791015625,0.2995145425246336,-0.8327078885821609,2.319132342566148
33.78766925004311,0.7034912109375,-0.556488037109375,-0.7263641357421875,-2.318010619115007,4.208800664585028,-0.2617621035438883
33.84705725009553,-0.165557861328125,-1.284774780273438,1.131057739257812,-2.052526481631624,0.6658440683738291,3.025247135047501
33.90642325009685,0.0652618408203125,-0.8660430908203125,0.3595123291015625,-0.3971039501417152,-2.73781455544023,0.728183875802622
33.96580025006551,0.1497039794921875,-1.052810668945312,0.5084686279296875,-0.8523010310379829,-0.2678093434311313,0.6708758449374249
34.02518325007986,0.094451904296875,-0.9626617431640625,0.3921966552734375,-0.5618146046087179,0.2131037535831596,1.092065956610035
34.08465725008864,-0.0807342529296875,-0.910858154296875,0.3028717041015625,-0.6623899484399964,0.3454910892676525,1.131062624452065
34.144040249986574,-0.05780029296875,-0.9910888671875,0.2917022705078125,-0.6422852127387702,0.5353116243885764,0.9754882104206881
34.20341525005642,-0.0678253173828125,-1.012603759765625,0.341705322265625,-0.7365291573944943,0.4145053110204019,0.9789087745247859
34.262800250086,-0.0057373046875,-1.209243774414062,0.2132415771484375,-1.292705317343297,0.5934287235929395,1.201579934324055
34.32217025000136,0.2526397705078125,-1.67230224609375,0.6246795654296875,-1.83453289797097,1.157448159268134,1.728054391267422
34.38152325002011,0.68011474609375,-1.831939697265625,0.3021392822265625,-2.84142563659809,1.71209060474516,1.75131017917043
34.44092125003226,-0.1088104248046875,-0.5742950439453125,0.45452880859375,-1.810444073278985,0.5394062345645732,3.229276167216216
34.50028325000312,-0.3240203857421875,-0.192352294921875,0.3936920166015625,0.2954404386890304,-1.358027865192978,1.535093989221294
34.55968025000766,-0.1236572265625,-0.07763671875,-0.0705413818359375,1.022668772292532,-0.3409535954023755,-1.824845383189697
34.619043249986134,-0.192413330078125,-0.7108917236328125,-0.01910400390625,2.67510909599377,-1.282244953213683,-3.682211691714789
34.67844725004397,-0.195465087890625,-1.20233154296875,0.07574462890625,3.270067273000742,-0.7571060715569915,-4.781340884167931
34.73782525002025,-0.1101531982421875,-1.658294677734375,0.2327423095703125,3.201954264960875,-1.285252993664928,-5.303166527112455
34.79721025004983,-0.4711456298828125,-1.672744750976562,0.175140380859375,3.482913498906491,-0.6677335811672404,-3.843169419573651
34.85659625008702,-1.04876708984375,-1.1630859375,-0.6343841552734375,-1.351746000813699,-0.2384466608324626,1.062569849640753
34.91598425002303,0.5770721435546875,-1.254318237304688,1.250900268554688,2.917765681877429,-2.878993252199184,-1.033840733065414
34.975368250044994,0.69329833984375,-0.745819091796875,-0.7095947265625,-2.475497182809061,1.497709865419307,-1.376702483388832
35.03475325007457,-0.0560760498046875,-0.8874969482421875,0.5511932373046875,0.4208119427978186,-2.150347317947433,3.310090323126889
35.09413625008892,-0.1899871826171875,-0.870941162109375,0.185577392578125,-0.05232152804013274,-0.7709118986479623,1.73204114341927
35.15351825009566,0.1093902587890625,-0.9527740478515625,0.4641265869140625,1.030969312778091,0.1462405670428672,0.6757148086380989
35.212904250016436,0.3063201904296875,-0.992523193359375,0.3426055908203125,-0.7182119354169293,0.3476149602369907,0.01821335869505191
35.272287250030786,-0.0955047607421875,-0.8661651611328125,0.3224029541015625,-0.5483272915841206,0.4493618286317951,1.749257947234415
35.33166725002229,-0.195159912109375,-0.8854827880859375,0.2480621337890625,-0.6469558646585511,-0.02771019114227447,0.9827634338865666
35.39104524999857,-0.1058807373046875,-1.139328002929688,0.3685760498046875,-0.5073321876600949,0.2189414026926133,0.8063657632918602
35.450417250045575,0.1386260986328125,-1.309616088867188,0.351104736328125,-1.278996429316005,0.3060033345206116,1.020356615834125
35.5098062499892,0.2811737060546875,-1.635635375976562,0.6549072265625,-2.031251020315199,1.036912423066712,2.213210969162644
35.56916725006886,0.6519775390625,-2.22015380859375,0.3944854736328125,-2.813876833017875,1.667361216340625,1.627106204883532
35.62854625005275,-0.0630035400390625,-0.3233642578125,0.24896240234375,-1.286951824124289,0.9767532119384758,3.608419758966437
35.68792425002903,-0.263092041015625,-0.377777099609375,-0.1668548583984375,0.6335111622113951,0.6506510006710361,-0.4620216975057047
35.74730124999769,-0.086822509765625,-0.2206878662109375,0.0137939453125,1.477383288399277,-0.8634197285890637,-2.367807470441744
35.80667925009038,-0.2724609375,-0.8250274658203125,0.127716064453125,2.644668632101946,-1.264578607806534,-4.345410708493951
35.86605125002097,-0.2174072265625,-1.196640014648438,0.0894775390625,3.143689093999904,-0.7039541698889721,-4.942937238056196
35.92543825006578,-0.4064178466796875,-1.798751831054688,0.1094207763671875,3.436069560596433,-0.2796774545129604,-4.558427909341683
35.984794249990955,-0.55853271484375,-1.725997924804688,-0.4652252197265625,2.7062888534042,-0.8741349572349976,-2.806266051254646
36.04418125003576,-0.189544677734375,-0.7450103759765625,0.5860748291015625,-1.196809147547287,-3.248742276888041,2.53162063962139
36.1035562499892,0.5335693359375,-1.476638793945312,0.25335693359375,-1.827588971744697,1.944319317064505,-0.6245379072344821
36.162953249993734,0.2734222412109375,-0.7363739013671875,1.0443115234375,0.6058696806252447,-1.799433233752052,2.679556042381984
36.22233825002331,-0.0574951171875,-0.752716064453125,-0.075653076171875,-1.320718043585404,0.4276378909878007,2.401467696091474
36.28172025003005,-0.0876617431640625,-0.816070556640625,1.0927734375,1.15979014313075,0.1919079207833279,1.082445020856015
36.3411032500444,0.200836181640625,-0.94525146484375,0.294677734375,-0.8105964609995601,-0.2561835800084993,0.4352031326963888
36.40047425008379,-0.014801025390625,-0.9061126708984375,0.3379669189453125,-0.5365268247939795,0.177560406726635,1.288595527149086
36.45984925003722,-0.127777099609375,-0.9539337158203125,0.1436920166015625,-0.6757616802732842,0.4370329906813822,1.024522332411227
36.51922424999066,-0.1388702392578125,-0.979156494140625,0.4211273193359375,-0.4160390254921786,0.1650001400774943,0.8656280217649575
36.57860025006812,-0.0121612548828125,-1.237777709960938,0.3778839111328125,-0.7897497686186378,0.4029232234396474,0.8511036738118832
36.63797725003678,0.0865936279296875,-1.444915771484375,0.4294586181640625,-1.293685893256663,0.6607326632936401,1.608010807235446
36.69736225006636,0.463348388671875,-1.7318115234375,0.560028076171875,-1.759621904932567,0.8038525381711524,2.019783448661317
36.75673625001218,0.50213623046875,-1.394134521484375,0.3766021728515625,-2.829360451595595,1.767771710500427,1.562037189969626
36.816122250049375,-0.701446533203125,0.22314453125,-0.669403076171875,-1.390891273044556,3.09506429986891,4.762820729315302
36.87550625007134,-0.03546142578125,-0.193359375,-0.22454833984375,0.3713107023520797,-0.2661320845765994,2.255356558677585
36.93489224999212,-0.015899658203125,-0.263458251953125,-0.055419921875,2.086685251037416,-0.3353598918487731,-2.398930236204846
36.99428824998904,-0.2946014404296875,-0.8580474853515625,0.1346435546875,2.850465470602255,-1.622965522020677,-3.949109435104786
37.05367425002623,-0.297088623046875,-1.203704833984375,0.0182342529296875,2.86024885918277,-1.404430784026519,-4.469543310063634
37.11305725004058,-0.5305633544921875,-1.656158447265625,0.2810821533203125,3.145816427078659,-0.5996168447018476,-4.066851515322715
37.17243925004732,-0.40789794921875,-1.400039672851562,-0.1436004638671875,2.488476364697671,-0.32614775132208,-3.029857066894428
37.23180425004102,-0.5702972412109375,-1.102188110351562,-0.2212371826171875,-0.9509466483433899,-1.487322738219671,1.62973740804053
37.29121125000529,0.64599609375,-1.781661987304688,1.210586547851562,0.05568456786468481,-0.89949144660586,1.766553047985607
37.35060925001744,0.303436279296875,-1.053512573242188,-0.16986083984375,-2.134906043631045,3.187491436028982,-0.8398518182062985
37.40996525005903,-0.2101898193359375,-0.8240814208984375,0.08453369140625,-0.8294644246905534,-0.04210830525967887,3.64758740175045
37.46935224998742,0.0499420166015625,-0.764068603515625,0.8558807373046875,1.06158288214077,0.7711454578755622,0.464182053781977
37.52874125004746,0.1966400146484375,-0.8234100341796875,0.28253173828125,-0.6980081301231521,-0.5723934794068397,0.2767274709734796
37.58812725008465,0.11224365234375,-0.8752288818359375,0.34796142578125,-0.5579940337088902,0.04997475048755492,0.5417311741962124
37.64752225007396,0.0178070068359375,-0.883453369140625,0.32159423828125,-0.4391206426598954,0.1888788413594718,0.4294006373133241
37.7069042500807,0.09405517578125,-0.9345855712890625,0.3424530029296875,-0.4166371714730104,0.1889323708973824,0.2002420170986219
37.766288249986246,0.004119873046875,-0.96026611328125,0.281829833984375,-0.4809674255005285,0.3479467901088146,0.3807265747021639
37.825634250068106,0.0806121826171875,-0.966949462890625,0.4499053955078125,-0.2904390221618616,0.05525659787750908,0.02270451355736154
37.885025250026956,0.060821533203125,-0.9580841064453125,0.185028076171875,-0.8262744903368565,0.01239541697766481,0.161494088502405
37.944389250013046,-0.1372528076171875,-0.9157562255859375,0.084197998046875,-0.4460874720715426,0.3190842491628629,0.615559325935389
38.00376824999694,-0.085723876953125,-0.964935302734375,0.1125946044921875,-0.003931358401174971,0.06420002545021317,-0.07105952946993027
38.06315025000367,0.0132293701171875,-0.9912261962890625,0.291473388671875,-0.04155756354625048,0.1975631433581112,-0.2633445538636134
38.122538250056095,0.0649871826171875,-0.9825286865234375,0.13818359375,-0.1190092122645889,0.2663637795914363,-0.1980539639470128
38.18193725007586,-0.0166015625,-0.9636993408203125,0.2073211669921875,-0.03296247744412874,0.02110368742611491,0.09355099014008546
38.241321250097826,0.0191192626953125,-0.974609375,0.15771484375,-0.08606910537361685,0.0499371999161848,0.09214217792343354
38.300703249988146,-0.02056884765625,-0.969390869140625,0.250579833984375,-0.02489576250227873,-0.08450316665265026,0.04782025316568082
38.36008225008845,-0.0512542724609375,-0.9499053955078125,0.1565093994140625,-0.108524347052947,0.02646516333266243,0.07320443941188008
38.41946425009519,0.0138702392578125,-0.9758453369140625,0.212677001953125,-0.003302852383916271,-0.02445207986467153,-0.002929477199087162
38.478842250071466,-0.0206298828125,-0.9839324951171875,0.2189483642578125,-0.03120905218242058,-0.06860489389320423,0.04124650633092922
38.53822025004774,-0.0113067626953125,-0.9760284423828125,0.1587982177734375,-0.0672022069470595,-0.02284379688237268,0.03752713555252456
38.597597250016406,-0.0350189208984375,-0.9691314697265625,0.20184326171875,-0.08448505715723773,-0.07348646817131947,0.07218657924325179
38.656984250061214,-0.0319061279296875,-0.9645538330078125,0.1494903564453125,-0.1025008092994057,-0.0600132699004996,0.02726171481470513
38.71637025009841,-0.0419158935546875,-0.9761505126953125,0.1598968505859375,-0.1226662650734857,-0.04847192868442321,0.003675162304309349
38.77573325007688,-0.013671875,-0.9714813232421875,0.14447021484375,-0.09880061328084966,0.03657478914671223,-0.1038419772243696
38.835120250005275,-0.020965576171875,-0.968994140625,0.149200439453125,-0.06371186802240164,0.03156777998125425,-0.0568707398142061
38.89450725005008,-0.004547119140625,-0.9843292236328125,0.146759033203125,-0.06898279645188647,0.0409769944286132,-0.07616321138295812
38.95389425009489,-0.0001983642578125,-0.9629058837890625,0.1507568359375,-0.0703314212279026,-0.0159478075557215,-0.02543851473243688
39.01327225007117,-0.00018310546875,-0.9814453125,0.1320953369140625,-0.1123129600196937,-0.1132783559148474,0.007592672267815908
39.0726542500779,-0.0292510986328125,-0.9979705810546875,0.198760986328125,-0.1129499881524406,-0.247700879304379,0.06556809130218688
39.132035250077024,-0.0072784423828125,-0.98077392578125,0.10369873046875,-0.2084397595661038,-0.1787902545180336,0.01573182519131608
39.19141225004569,-0.0414276123046875,-0.9710235595703125,0.07708740234375,-0.1622237946410867,-0.07645882226395691,0.07005125668122626
39.25078125006985,-0.030364990234375,-0.990753173828125,0.1038055419921875,-0.1156530966588711,-0.1496864311773207,-0.02611602291375304
39.310174499987625,0.032440185546875,-0.989471435546875,0.1096038818359375,-0.08285413730567319,-0.2011690634740785,-0.07030052855925768
39.36955250008032,-0.0053253173828125,-0.9599151611328125,0.075286865234375,-0.1493101265152925,-0.4909534806399986,0.3016669093176356
39.42890649999026,-0.06646728515625,-0.9405975341796875,0.0158538818359375,-0.4408650131738973,-0.685532019364458,0.3058091900771449
39.48831650009379,-0.049224853515625,-0.989166259765625,0.113525390625,0.07555228222889394,0.0005374259079779902,0.08743317648395543
39.54770150000695,-0.0717010498046875,-0.9864349365234375,0.0459747314453125,-0.1147486871526802,0.06029263549884891,0.05151032917209461
39.60708650003653,-0.02978515625,-0.9622344970703125,0.08172607421875,-0.009844108653368896,-0.06302184298396211,-0.04194531980096602
39.66647150006611,-0.0318450927734375,-0.9823150634765625,0.053192138671875,-0.06301092402349279,-0.0400123974817865,0.01959820246189311
39.725853500072844,-0.0466766357421875,-0.9670257568359375,0.058929443359375,-0.06526928462787998,-0.06640592178112581,0.03800863507761089
39.78523550007958,-0.0655975341796875,-0.99188232421875,0.0669403076171875,-0.08342298851451412,-0.0780279567782316,0.03919427439491417
39.844617500086315,-0.0511016845703125,-0.9797210693359375,0.0196533203125,-0.1055021918479251,-0.02555249802709228,-0.04240338350845965
39.904000500100665,-0.0373687744140625,-0.9576416015625,0.0585784912109375,-0.01640240915379803,-0.113901801926035,-0.1522406689788157
39.963382499990985,-0.0265960693359375,-0.9727325439453125,0.0122528076171875,-0.07562631810719814,-0.002680471637164753,0.03197124888640125
40.02276650001295,-0.054840087890625,-0.986236572265625,0.0705413818359375,-0.005975600853919794,-0.1364380037025035,0.0686541623733707
40.08213550003711,-0.0386962890625,-0.98406982421875,0.035308837890625,-0.06645865237070937,-0.09402343491746552,0.03831276807409793
40.14151149999816,-0.040008544921875,-0.9705657958984375,0.0802001953125,-0.05280409282965511,-0.3667433810825939,0.08076621901105108
40.200910500017926,-0.0683135986328125,-0.9834136962890625,-0.0216064453125,0.02007224513592722,0.2167522842765681,0.1297896883572297
40.26029850007035,-0.0578460693359375,-0.9846954345703125,0.0457916259765625,0.0459879983357063,0.0455709473089999,0.002716424311880823
40.319684499991126,-0.06414794921875,-0.976043701171875,0.0368194580078125,0.01321140953566509,0.09093097225966551,-0.04576482543635766
40.37906050006859,-0.02880859375,-0.9785308837890625,0.0174102783203125,-0.008303736278867064,0.03754258188684702,-0.08355827709789014
40.43845350004267,-0.058990478515625,-0.9828643798828125,0.03765869140625,0.05326428706602079,0.01081776034790187,0.04040974111642633
40.49783850007225,-0.093414306640625,-0.969451904296875,0.022796630859375,-0.01330781596712595,-0.107583452239822,0.08538680350233856
40.5572295000311,-0.0256500244140625,-0.99945068359375,0.07891845703125,0.005128182995056581,-0.2794225899966398,0.002019208738498078
40.61661650007591,-0.083526611328125,-0.987091064453125,-0.0072021484375,-0.1067655954690586,-0.2831217207507599,0.1480360702497986
40.67600550001953,-0.074554443359375,-0.980010986328125,0.025360107421875,-0.00357875587284848,-0.08037366906637339,0.04138925176535747
