accelerometerTimestamp_sinceReboot,accelerometerAccelerationX,accelerometerAccelerationY,accelerometerAccelerationZ,gyroRotationX,gyroRotationY,gyroRotationZ
529984.357011875,-0.005615234375,-0.9628448486328125,-0.2334442138671875,0.08278223195624106,0.3981417840185191,-0.1248005223710753
529984.4163708751,-0.017791748046875,-0.942718505859375,-0.1651458740234375,0.1346148036202353,0.3236869904748468,-0.1164935902989001
529984.475731875,-0.0838775634765625,-0.991455078125,-0.188079833984375,0.161728446678332,0.1971673976201254,-0.1172169048509656
529984.535093875,-0.005523681640625,-0.974700927734375,-0.154449462890625,0.1759918048445784,0.2894651041512196,-0.1278216123116611
529984.5944518751,-0.01751708984375,-0.991363525390625,-0.1136016845703125,0.2278914881680426,0.004366785239402927,-0.02978692416031826
529984.6538028751,0.0060882568359375,-0.9883270263671875,-0.1226806640625,0.2085244480887683,-0.03559953955552521,0.01008326051925801
529984.713128875,-0.0251617431640625,-0.978363037109375,-0.137420654296875,0.201959756001723,-0.06344315506841265,0.1041865902694259
529984.7726118751,-0.07708740234375,-0.9805145263671875,-0.115447998046875,0.2380674266932353,-0.08369889200344632,0.1086905283049679
529984.8319458751,-0.041748046875,-0.97039794921875,-0.110809326171875,0.2031549826989505,-0.03822062270038119,0.07299777811128993
529984.8913108751,-0.0223541259765625,-0.985626220703125,-0.10821533203125,0.2367496945858641,-0.1365794175563867,0.1359208178188101
529984.950680875,-0.0511474609375,-0.9864349365234375,-0.0084228515625,0.235604002684912,-0.152352788060708,0.1542146039787824
529985.010038875,-0.04833984375,-0.9659271240234375,-0.0498504638671875,0.2571191484994442,-0.3290655106123708,0.2435780396208273
529985.069389875,-0.154083251953125,-0.935272216796875,-0.0618896484375,0.2443956300754816,-0.3173507976093303,0.2423769539692016
529985.128751875,-0.1396026611328125,-0.96624755859375,-0.01409912109375,0.1755838085655782,-0.2358093324049571,0.1881502004852261
529985.1881068751,-0.092498779296875,-1.002273559570312,-0.0347137451171875,0.1368097809906786,-0.1021351572817379,0.1525485304008288
529985.247464875,-0.1189727783203125,-0.961761474609375,-0.0582275390625,0.1359234809799002,-0.06972155733827445,0.0925001067739402
529985.3068418751,-0.1854400634765625,-0.927276611328125,0.00628662109375,0.2149969948020969,-0.00155848186991437,0.1386846463980944
529985.366202875,-0.137054443359375,-0.9523468017578125,-0.05078125,0.2512724446422842,0.007343933022002507,0.07571526768760679
529985.425560875,-0.0630645751953125,-0.987274169921875,0.034027099609375,0.2872986226044401,-0.02753282461367519,0.1091597772890399
529985.4849092501,-0.1212921142578125,-0.9609527587890625,0.0423736572265625,0.3995412751713557,-0.1522949974650533,0.2171786563670898
529985.54428725,-0.226043701171875,-0.9613800048828125,0.0063018798828125,0.5010615085573943,-0.3112439029136696,0.1784754688771863
529985.60363825,-0.1546173095703125,-0.972900390625,0.193603515625,0.5235247397199947,-0.2993739276190774,0.08562169431048354
529985.66299825,-0.148590087890625,-0.97003173828125,0.214385986328125,0.4314944145623444,-0.1697799816019685,0.05110606131862058
529985.7223622501,-0.2497711181640625,-0.9395294189453125,0.1701507568359375,0.175038925806548,-0.1302810415783493,0.1059772997863952
529985.78173125,-0.2009429931640625,-0.9373779296875,0.1819000244140625,0.1301619982776228,0.05801989382457529,-0.002711097989700664
529985.8410892501,-0.079193115234375,-0.9725799560546875,0.1816253662109375,0.1086910609371859,0.01646632501995993,-0.02358069355599761
529985.9004442501,-0.1317901611328125,-0.9751739501953125,0.208282470703125,0.03811835731452215,-0.01703730675767292,0.2517582052251147
529985.95980225,-0.113433837890625,-0.9791717529296875,0.1871795654296875,0.005611280416796955,0.130205141487282,0.5549660195494701
529986.0191602501,-0.1719512939453125,-0.962646484375,0.2310638427734375,-0.0190096438609856,0.1096657778961549,0.6276623278253631
529986.07851725,-0.2713470458984375,-1.085800170898438,0.3268585205078125,-0.1290914075194109,0.2774281486562795,0.8208198037921562
529986.1378732501,-0.1083221435546875,-1.514328002929688,0.04351806640625,-0.5220520116371808,1.041281605151096,1.409113153855096
529986.19722825,0.56451416015625,-1.655075073242188,0.0220947265625,-0.7165730260820945,1.162265285047869,1.812729598126491
529986.25658625,-0.3361968994140625,-0.6948699951171875,0.614501953125,-0.9880141222917668,0.5942764077679118,2.861319449940982
529986.31594425,0.767364501953125,-0.166656494140625,0.308746337890625,0.05222725213754394,1.609581805962484,-0.4718066839828739
529986.37530125,0.290069580078125,-0.683441162109375,0.146240234375,0.4113534598702932,1.278960476641289,-1.829145855717957
529986.4346412501,0.0187530517578125,-1.100540161132812,0.2785186767578125,0.9433816729509108,-0.6988124047723561,-3.896241959041187
529986.49401625,-0.2204742431640625,-1.537094116210938,0.4964447021484375,1.411019977195593,-1.935971105995434,-4.760676352005571
529986.55337125,-0.4334259033203125,-1.631271362304688,0.2565765380859375,1.527830483664212,-1.751230550653836,-4.613433903760615
529986.61270225,-0.8382415771484375,-1.26458740234375,-0.1083831787109375,1.211605137931549,0.6458663654565997,-4.334114111782053
529986.6720752501,-0.48291015625,-1.122512817382812,-0.0643463134765625,0.3371471392563253,0.3763083904537224,-0.104188720798298
529986.73142125,-0.54571533203125,-1.1605224609375,0.0835113525390625,0.1134772940482763,-0.6346462014679869,1.455613011752315
529986.79077925,1.8712158203125,-1.785873413085938,0.2567291259765625,0.1087768147242865,-0.8959790034441545,2.06499114079763
529986.85013425,0.2357940673828125,-0.3881072998046875,0.935882568359375,0.7155237406126033,-0.1475575002019114,2.690162347739334
529986.90946525,-0.4539337158203125,-1.173553466796875,-0.1049041748046875,-0.6362904371250018,1.638813727351629,1.054984101591771
529986.96883725,0.3276519775390625,-0.921142578125,0.464752197265625,-0.2095822556737478,0.8369686800101787,0.7506550964484926
529987.0281932501,0.14129638671875,-1.003738403320312,0.101654052734375,-0.5201638304243147,0.4947436915033993,1.238204258267043
529987.08755225,-0.1560516357421875,-0.982513427734375,0.3359375,-0.2861667791411565,-0.2447200030962533,1.440465484104163
529987.14690425,0.02752685546875,-0.97650146484375,0.227203369140625,-0.3497657291333388,0.03904353947721568,1.307265351654978
529987.20625725,-0.08111572265625,-1.072341918945312,0.268798828125,-0.4125779813395116,0.05745050998351635,1.446665855754085
529987.26560125,-0.0299835205078125,-1.43182373046875,0.1322784423828125,-0.6979985427432278,0.5816729979091118,2.00567615173495
529987.32496925,0.466339111328125,-2.167877197265625,0.5784912109375,-1.160895354983133,1.040124994289674,3.365820164730105
529987.3843252501,0.9383392333984375,-1.998092651367188,0.434173583984375,-1.243988111522477,1.502487043782691,3.359614466758002
529987.44368225,-0.5837860107421875,-0.0772705078125,0.3563995361328125,-1.056556964531572,-0.5773901022440463,5.657279067777021
529987.5030422501,0.7439117431640625,0.31243896484375,0.0024261474609375,0.5676495905570815,0.5370088569512839,-1.695111088583141
529987.56240325,0.09417724609375,-0.3059539794921875,0.0332489013671875,1.084815766858403,-0.8506211090223609,-2.861643822961754
529987.6217602501,0.08770751953125,-1.013839721679688,0.1223907470703125,1.764008131247927,-1.847141101519732,-5.051416311370611
529987.68110225,-0.3117218017578125,-2.016189575195312,0.55908203125,1.731613439748203,-2.56295619195559,-6.245869626617614
529987.7404742501,-2.484100341796875,-1.8653564453125,0.002777099609375,1.059153013962181,1.444063947369078,-5.20317281766325
529987.79983525,-1.7696533203125,-1.475509643554688,-0.5507965087890625,1.188813805322651,2.908945026030978,-2.391440361955107
529987.8591802501,1.951492309570312,-2.320205688476562,-0.0333251953125,0.5599157707514915,-4.33373647553948,-0.4145274152574496
529987.9185462501,-0.18450927734375,-0.7805938720703125,1.23773193359375,0.5193446420730062,-2.221205246122845,3.624292731695527
529987.9779092501,-0.0796051025390625,-0.985260009765625,0.146484375,-0.8050464332878349,0.3708286701947754,1.306589974002534
529988.03726825,0.5330047607421875,-1.060379028320312,0.4622955322265625,-0.3811590720631928,-0.6768117646911025,0.2300619644564571
529988.0966232501,0.190185546875,-0.9376220703125,0.1582183837890625,-0.492346047574001,-0.1544444347808563,1.487338717186211
529988.15601225,0.0281219482421875,-0.9392547607421875,0.24237060546875,-0.4063264769966596,-0.2023685512290501,1.503896122315452
529988.21534725,-0.230072021484375,-0.9668121337890625,0.3404388427734375,-0.3721661096942132,0.04670572024948266,1.446803274866333
529988.27472725,-0.026519775390625,-1.138397216796875,0.270599365234375,-0.532409045116499,0.6413661558465839,1.477474368508558
529988.3340882501,0.01739501953125,-1.360137939453125,0.277008056640625,-0.7816409757315645,0.6619356131580288,1.800098757708463
529988.39344825,0.54949951171875,-2.381637573242188,0.89447021484375,-1.18472318988829,1.169616674920924,3.221549804261678
529988.45278625,0.0895538330078125,-1.7091064453125,-0.3592071533203125,-2.2111667267099,3.71256959761282,2.805027681347759
529988.51216225,0.253570556640625,0.092315673828125,0.373748779296875,-0.9149726683385996,-0.1595851346330362,5.24982554100704
529988.57151525,0.3302459716796875,-0.262542724609375,-0.130645751953125,0.6940815654119393,0.7153090898287429,-1.673569311157708
529988.63087525,0.289154052734375,-0.79705810546875,-0.0545654296875,1.600006942895322,-0.8202232557079785,-4.311362726589506
529988.6902362501,0.0455780029296875,-1.542755126953125,0.21783447265625,1.940742958036638,-2.394800472302461,-5.654986618710681
529988.7495912501,-0.6089019775390625,-2.364501953125,0.7063140869140625,1.681042141176471,-2.199946829037396,-6.181680520127871
529988.80896025,-2.249069213867188,-1.5460205078125,-0.2833099365234375,0.6511274401900513,0.5713764181865384,-4.175800902885639
529988.86831725,-1.15008544921875,-1.5164794921875,-0.133575439453125,-0.3506349849131406,0.6838089541391766,2.384172062708063
529988.92768225,1.1619873046875,-1.172393798828125,-1.304367065429688,1.062115514358785,-2.140374578613414,-1.161171258472065
529988.98704725,-0.6560211181640625,-0.8111572265625,0.6711883544921875,0.4482073482992457,0.1945857292594026,3.695670242599613
529989.04641125,0.34716796875,-0.88299560546875,0.2407989501953125,-0.4716458290530331,0.9957934821519973,0.3554632959694543
529989.10577125,-0.182830810546875,-0.8882598876953125,0.2557373046875,-0.3924620603617071,0.4817613138214811,1.255461542130756
529989.16513825,-0.1759185791015625,-0.950714111328125,0.2658843994140625,-0.3895837158555495,0.1723573889049472,1.230097063276624
529989.22450425,0.017059326171875,-0.97216796875,0.26959228515625,-0.4289686725845133,0.4058383195688481,1.186998594723653
529989.2838652501,-0.126129150390625,-1.062789916992188,0.3883819580078125,-0.3684637831467851,0.3825274042312755,1.336510056217356
529989.34320725,0.1090087890625,-1.539794921875,0.1543426513671875,-0.6695842118087364,0.9375863681027894,1.65001578184483
529989.40256425,0.4850616455078125,-2.4281005859375,0.7605743408203125,-1.207709998521199,1.030508585909507,3.222007867969172
529989.4619172501,0.4593963623046875,-1.760589599609375,-0.045501708984375,-2.644066757695588,4.629055474082802,3.702861310175045
529989.5212812501,0.155181884765625,-0.1910400390625,0.48065185546875,-0.8262127049995667,-0.4824047335408442,5.785312667711453
529989.5806492501,0.30596923828125,-0.0779266357421875,0.0724639892578125,0.5307046220188483,0.1492504717068747,-1.582128609865402
529989.64000825,0.1211395263671875,-0.6143035888671875,0.03717041015625,1.316631689208786,-1.114361142307851,-4.511836971335183
529989.6993672501,0.02423095703125,-1.261184692382812,0.3271484375,1.574090657063325,-1.976056740407198,-5.400763924212807
529989.7587172501,-0.7646331787109375,-2.3646240234375,0.8028411865234375,1.778650190921183,-2.476990949864486,-5.875862807935238
529989.81807425,-2.08935546875,-1.4161376953125,-0.1650543212890625,0.9331301006507599,-0.42173233127055,-4.289423072897215
529989.8774342501,-0.735107421875,-1.700149536132812,-0.96990966796875,0.8176959158334932,1.056670148877901,-0.9876402144747197
529989.9367982501,0.3785400390625,-0.463775634765625,0.358642578125,-0.372157054946507,2.476501727172238,-1.958906781935414
529989.99615725,-0.708099365234375,-0.9051666259765625,0.2477874755859375,-0.9908269530351085,-0.0407951005261608,2.770261711213429
529990.05552525,0.488067626953125,-1.0263671875,0.4899749755859375,0.2438523452131054,-0.219874041706359,0.08994347212746413
529990.11488825,-0.12872314453125,-0.868255615234375,0.0513458251953125,-0.2384051155194574,0.6472397576307536,1.278223579967664
529990.1742442501,-0.04913330078125,-0.9645233154296875,0.428314208984375,-0.254625897086912,0.1123675548220403,1.22016293977841
529990.23360125,-0.000946044921875,-0.9962310791015625,0.2559814453125,-0.4123233831393001,0.3277989111979291,1.259282645662802
529990.29295825,-0.195587158203125,-1.09393310546875,0.2668609619140625,-0.3149656705370553,0.4671964858198377,1.56050587234283
529990.35230925,0.0529937744140625,-1.405349731445312,0.193878173828125,-0.6012176708330943,0.7606771042626788,1.733007870894969
529990.4116612501,0.47344970703125,-2.038116455078125,0.6460418701171875,-0.9876961408576114,1.172706208101525,3.156587848423593
529990.4710234167,0.609130859375,-1.871734619140625,0.1140594482421875,-2.455549040979931,4.643483415604416,3.716646897241731
529990.5303794167,-0.185272216796875,-0.2737884521484375,0.4418487548828125,-0.7553103020339511,0.3789105651548389,5.893092394923614
529990.5897414167,0.924041748046875,0.2388916015625,-0.0483856201171875,0.6938067271874432,0.8825926242248712,-1.740434894542982
529990.6490974167,0.1847076416015625,-0.6109619140625,-0.0020294189453125,1.295209754032407,-0.7490063334176245,-3.197359246816053
529990.7084504167,0.0407867431640625,-1.182205200195312,0.157562255859375,1.751469436203616,-1.807712735265,-5.163776675657708
529990.7678064167,-0.2923583984375,-2.177780151367188,0.449554443359375,1.822161449443116,-2.086633852028378,-6.296916033127817
529990.8271634167,-2.801864624023438,-2.082077026367188,-0.4521484375,0.4966758148742518,-0.1024161207767412,-3.765529219050135
529990.8865354167,-1.648208618164062,-1.477874755859375,-0.1754913330078125,0.7926877679332132,0.218495589526134,-1.106312803177523
529990.9459074168,1.19854736328125,-1.43060302734375,-0.3706512451171875,-0.8423179053757118,2.789245256095731,-4.142342544846537
529991.0052694167,-0.8690032958984375,-0.8309478759765625,0.75531005859375,0.05813733922864778,-1.23210588568687,4.311329703391989
529991.0646354167,0.2036285400390625,-0.882171630859375,0.230621337890625,-0.6380726245264828,0.6091781256474501,-0.2958777297400214
529991.1239964167,0.5794830322265625,-0.8108673095703125,0.0675201416015625,-1.07310424964867,1.047165859579626,0.556070698769635
529991.1833594167,-0.183074951171875,-0.94500732421875,0.24932861328125,-0.3652653266775999,0.1936062186104714,1.724451666944762
529991.2427214168,-0.1312713623046875,-0.997711181640625,0.2157135009765625,-0.4799138789732931,0.4639080145058079,1.370734872018182
529991.3020574166,0.0081787109375,-1.092178344726562,0.29486083984375,-0.5465802579090286,0.8371606939247734,1.750309895864996
529991.3614444167,0.0589599609375,-1.439117431640625,0.1161346435546875,-0.7599639097227555,0.7835563211875495,2.107878154360049
529991.4207914167,0.664154052734375,-2.415985107421875,0.70245361328125,-1.239927856124542,1.450932239820392,3.297297029882366
529991.4801564167,0.3911590576171875,-1.9669189453125,-0.1400146484375,-1.335584341422444,3.084180493125974,2.808105762935673
529991.5395134167,-0.066650390625,-0.1601409912109375,0.3898162841796875,-1.010760181162134,-0.9396774821907197,4.580474622109795
529991.5988684167,0.987548828125,0.351837158203125,-0.1348114013671875,0.6904788410892801,0.1040867217285479,-2.075067477098055
529991.6582284167,0.19683837890625,-0.5888519287109375,0.0285186767578125,1.08775057037967,-1.306583582415917,-4.216700665642639
529991.7175884166,0.047637939453125,-1.663284301757812,0.29656982421875,1.620531392784344,-2.128391951604711,-5.917089074241882
529991.7769424167,-0.66644287109375,-2.238372802734375,0.9571990966796875,1.337002208386803,-3.053974387410077,-5.185395684754753
529991.8362934167,-2.387313842773438,-1.324874877929688,-0.177001953125,0.8013595530747292,0.2349720345582362,-3.228697728627451
529991.8956464167,-0.9798431396484375,-1.384963989257812,-0.413665771484375,0.429529001677866,1.10279956106749,0.5092592510248762
529991.9550004167,0.3584442138671875,-1.274917602539062,0.2530364990234375,-0.1297593283208028,2.404439517551893,0.08959566328909978
529992.0143424167,-1.597091674804688,-0.398651123046875,-0.1483917236328125,-0.3834025189654756,-0.9751076447009158,5.847447944368528
529992.0737154167,0.25408935546875,-0.953857421875,0.2548065185546875,0.1899307899900531,1.392664405698331,1.013317881073046
529992.1330534167,-0.4393768310546875,-0.8408355712890625,0.2211456298828125,-0.1255744369838523,0.1631686841958468,1.242046667087809
529992.1924114167,-0.0699310302734375,-0.947998046875,0.3053131103515625,-0.08654740910539509,0.7153703425338147,0.6166847778120564
529992.2517564168,-0.1403961181640625,-0.973541259765625,0.207611083984375,-0.226192391392572,0.5676669011041671,1.659633521805542
529992.3111184167,-0.2614898681640625,-1.286300659179688,0.145050048828125,-0.2389393456341273,0.8351097935693034,1.864527548696314
529992.3704654167,0.027008056640625,-1.875137329101562,0.4025726318359375,-0.7658628115372811,1.203407395464068,2.734256305907775
529992.4298224167,1.363739013671875,-2.597137451171875,1.43853759765625,-1.241191259745676,3.449671389547904,2.598398871322909
529992.4891754166,-0.7879486083984375,0.2876739501953125,0.1673583984375,-2.205673158013284,1.447830722414886,5.283717994303824
529992.5485294167,0.8753204345703125,0.1866607666015625,-0.080078125,-0.0005246427347456099,-0.2696413319449967,-3.255482204974814
529992.6079014167,0.07476806640625,-0.69024658203125,0.30902099609375,1.19817747971537,-0.4760171416662892,-2.630159730483194
529992.6672614167,0.0014801025390625,-1.04296875,0.2511749267578125,1.717480576475371,-1.104997201599023,-5.368736748943514
529992.7266024167,0.1691741943359375,-1.92327880859375,0.40447998046875,2.016958367376962,-0.9954592554351923,-6.954798847738963
529992.7859774167,-1.041061401367188,-2.344696044921875,0.628662109375,1.603328970039086,-0.9379485580110402,-3.557536870547165
529992.8453304167,-2.047073364257812,-0.943328857421875,-0.35223388671875,0.4684484378482839,-1.688613774471675,-2.190762651702149
529992.9046854167,0.6949005126953125,-2.037628173828125,-1.104385375976562,-0.2124957539062945,-2.345502963680113,3.252257116894728
529992.9640394168,-0.5639495849609375,-0.6876220703125,0.8568878173828125,1.747516239881503,-1.482923728731078,4.883010787207232
529993.0233964167,-0.091033935546875,-1.099639892578125,-0.014739990234375,-0.1609113888558957,0.292872885082085,2.697684712554371
529993.0827224167,-0.0064544677734375,-1.02081298828125,0.023040771484375,-0.3458508823309223,-1.038116171879428,0.8416276140211633
529993.1420874167,-0.040771484375,-0.97039794921875,0.171844482421875,0.02426885438167408,0.7192963746128095,0.496246513306531
529993.2014494167,-0.154388427734375,-0.9698638916015625,0.2976226806640625,0.01559973240124815,0.2411348556367886,0.7296203848946107
529993.2608114167,-0.04779052734375,-1.056533813476562,0.31597900390625,-0.1289332157506602,0.8311448793383934,1.205896385818856
529993.3201704167,-0.1374969482421875,-1.47393798828125,0.264434814453125,-0.3931054800810702,1.140914189956486,2.033757587533181
529993.3795494167,0.2483062744140625,-2.01690673828125,0.3701019287109375,-0.6374819353967033,1.318380054464423,2.561437923818136
529993.4389034167,0.6450347900390625,-1.669204711914062,0.353302001953125,-0.8202600073310216,1.929938247178077,3.058776333171599
529993.4982624167,0.03717041015625,-0.376556396484375,0.8530120849609375,0.3970815795885586,-0.3213018634025718,3.366645212035811
529993.5576264167,0.6602935791015625,-0.0198211669921875,0.1497039794921875,1.060486725036093,0.3028927623673991,-3.391342835352988
529993.6169864167,0.160400390625,-0.8717193603515625,0.1380767822265625,1.90061551199576,-0.9943817404581463,-4.441472526909763
529993.6763434167,-0.031463623046875,-1.400527954101562,0.3303375244140625,1.997062956137416,-1.012424390527324,-5.742692502890261
529993.7356914167,-0.2982330322265625,-2.107528686523438,0.2556610107421875,1.890420398710718,-1.112300920888566,-6.266063311899249
529993.7950574167,-2.669021606445312,-1.666610717773438,-0.15216064453125,0.3408579879192417,-1.105047269027517,-1.595026831656873
529993.8544174167,-1.095855712890625,-1.51055908203125,-0.2905120849609375,0.4364170015212469,-0.592031362968975,1.215466188879946
529993.9137844167,-0.2656097412109375,-0.640594482421875,0.7551422119140625,1.225292720670121,0.9852324505331791,4.712706429186627
529993.9731404167,-1.300033569335938,-1.959884643554688,0.1820831298828125,-0.1272394452973698,-0.3037188749375417,2.402632562752275
529994.0325094167,0.2698974609375,-0.765716552734375,-0.200103759765625,-0.11071133494012,1.510098890810356,0.7315501114204821
529994.0918674167,-0.262847900390625,-0.7870330810546875,0.3311614990234375,0.03211186379195744,0.1505247942884776,0.9438077787253235
529994.1512294167,0.0100860595703125,-1.003250122070312,0.2440338134765625,-0.05645315615528167,0.08423525264698829,0.7441085138568598
529994.2105904167,-0.182952880859375,-0.9781646728515625,0.1681671142578125,-0.1442048467056106,0.03036562906519248,1.114529187772635
529994.2699554167,-0.2782745361328125,-1.084426879882812,0.3265228271484375,-0.1490118524732036,0.4256674180972511,1.485362651657373
529994.3293214167,-0.0602569580078125,-1.540252685546875,0.2435760498046875,-0.5642306243496378,1.227934842787588,2.206459323167076
529994.3886854167,0.377410888671875,-2.507400512695312,0.32476806640625,-0.7348353869412039,1.737685447033584,2.972467543299875
529994.4480444167,0.3097076416015625,-1.964401245117188,-0.1510772705078125,-2.250461668594019,2.072718302700495,2.735697076057508
529994.5074034167,0.280670166015625,-0.1492767333984375,0.27142333984375,-0.8884577038935527,-0.3830967880723344,-0.3756489917678189
529994.5667644168,0.4084014892578125,-0.510040283203125,0.0784454345703125,1.506129449205593,-0.8316737831308831,-4.073584519190653
529994.6261264167,0.09100341796875,-1.090042114257812,0.0707550048828125,1.806014703753965,-1.284315294645111,-5.18977765001237
529994.6854904167,0.060699462890625,-1.73919677734375,0.166229248046875,1.494098352665051,-0.7257675897455931,-6.546580993736129
529994.7448324166,-0.6875,-2.506500244140625,0.339508056640625,1.16100880564557,-1.750753312186494,-3.591412279612973
529994.8042234167,-2.87884521484375,-0.79901123046875,-0.1192779541015625,-0.03521231593302769,-2.030790027130506,-1.034984827069712
529994.8635914167,0.556549072265625,-2.38116455078125,-0.7255706787109375,-0.215740549378447,-1.491830670996848,2.581979417938135
529994.9229584167,-0.3412933349609375,-0.249603271484375,0.7508392333984375,0.7372492761532518,-0.7010412042886434,3.189790542998047
529994.9823124167,-0.233856201171875,-0.954132080078125,-0.05511474609375,0.1608091234700366,0.5886371641596689,0.9102551447836332
529995.0416824167,-0.0689544677734375,-1.111328125,0.025482177734375,-0.1812510153652668,-0.4243952260445202,0.8551857671307567
529995.1010634167,-0.10137939453125,-0.97015380859375,0.166595458984375,0.02010313780457214,0.5265484928216706,0.6870353737998076
529995.1604234166,-0.2064971923828125,-0.9303436279296875,0.25665283203125,0.07053435410296664,0.4041152543435668,0.9186441022173828
529995.2197694167,-0.213897705078125,-1.031692504882812,0.275787353515625,-0.04104463872030122,0.4923364601940767,1.249113631356443
529995.2791554166,-0.18548583984375,-1.498016357421875,0.2212371826171875,-0.2224794122007835,1.152889093798027,1.639322124803726
529995.3385124167,0.7274017333984375,-3.08331298828125,0.473876953125,-0.4891225573905691,1.360894491790339,2.249795345689281
529995.3978564166,0.4145050048828125,-1.476593017578125,-0.34228515625,-0.9800518032646479,2.611840377976757,2.981895133558756
529995.4572391667,-0.013427734375,-0.2875518798828125,0.507171630859375,0.1192275914739754,-1.058774046139063,1.069109508013552
529995.5166041667,0.9846954345703125,0.0484161376953125,0.13702392578125,1.016612211341474,-0.9995093908209849,-3.995216743057327
529995.5759721667,0.03033447265625,-0.9500579833984375,0.2139434814453125,1.431641898780512,-1.883288453311486,-5.046909177541761
529995.6353421666,-0.093414306640625,-1.569488525390625,0.43707275390625,1.520180287116851,-1.283262280750094,-6.261152442849143
529995.6947051667,-0.8143463134765625,-2.31744384765625,0.58685302734375,1.436276331709468,-1.389552501964573,-5.566117998399173
529995.7540651667,-2.926055908203125,-1.254440307617188,-0.5210418701171875,1.036663683820898,-0.4021370582858559,-2.620391255604784
529995.8134341667,-0.499725341796875,-1.536087036132812,-0.5672607421875,0.3105565410363201,-0.7639959356131355,2.161692117875062
529995.8727991667,0.1392059326171875,-0.3406982421875,1.305099487304688,2.844349787474997,1.348142477542713,6.55453212748667
529995.9321591667,-1.900161743164062,-1.698654174804688,-0.6154937744140625,-0.05875572523376418,1.287354227765,3.221842751981587
529995.9914981667,0.275482177734375,-0.9760589599609375,0.0771636962890625,-0.3017867515666892,1.404595900014104,0.7507451112933372
529996.0508541667,-0.1774749755859375,-0.9332427978515625,0.237274169921875,-0.08966543810965985,0.2939626506001454,0.9027301168075054
529996.1102381666,-0.1607666015625,-0.9446868896484375,0.28131103515625,-0.1062814327828822,0.3726356249943942,0.7814076828200736
529996.1695951667,-0.262054443359375,-1.029556274414062,0.175506591796875,-0.1205474541102187,0.3365495259077115,1.266783705189119
529996.2289531667,-0.266571044921875,-1.421676635742188,0.2211151123046875,-0.2604273272055406,0.9964462229351757,1.59626253840267
529996.2883111667,0.3305511474609375,-2.222198486328125,0.580169677734375,-0.6771715577543722,1.820534258017077,3.354238609781568
529996.3476501667,0.299774169921875,-1.47540283203125,0.1436614990234375,-1.045614568244655,2.66719524649849,2.607122854421791
529996.4070191667,0.3473052978515625,-0.1598968505859375,0.4368896484375,-0.5545308590273512,-0.2292558255944901,1.658679044870857
529996.4663821667,0.575927734375,-0.3122711181640625,0.0901336669921875,1.469113640582363,-0.9663130878331472,-3.688392355972644
529996.5257491667,0.0139007568359375,-1.145950317382812,0.0531005859375,1.824645646107941,-1.576190825898961,-4.663191872935438
529996.5851091667,0.1343841552734375,-1.7501220703125,0.241241455078125,1.564386630683294,-0.7228194704188754,-6.549778384940878
529996.6444661667,-0.390045166015625,-2.17913818359375,0.551971435546875,1.523123612753606,-1.753984791853196,-5.780566382016714
529996.7038271667,-2.766921997070312,-1.3267822265625,-0.624114990234375,1.215897088344321,-1.072887202019829,-2.962522767157301
529996.7631881667,-1.227447509765625,-1.085525512695312,-0.1078948974609375,0.5038551645408874,-0.1050909997756168,0.6697141740699323
529996.8225481667,0.450469970703125,-4.436294555664062,-1.692428588867188,-3.234404882843491,-3.726723766174373,-0.0989630661073445
529996.8819051667,-1.227035522460938,-0.5872802734375,0.382965087890625,0.1029210561194203,0.7263489578115574,2.787890772365317
529996.9412601667,0.113616943359375,-0.7855072021484375,-0.0147552490234375,-0.491102351344934,0.7605324946154874,0.9037905875535749
529997.0006211667,-0.229156494140625,-0.8965301513671875,0.4620513916015625,0.1988182911798655,0.03995007951227865,0.8704925518120962
529997.0599841666,0.2087860107421875,-1.02301025390625,0.1654205322265625,-0.1280831347307069,0.70193602641491,0.5240802751233852
529997.1193491668,-0.10357666015625,-0.9852142333984375,0.1440277099609375,-0.03414651886477798,0.1137465396344833,1.089145001526436
529997.1787071667,-0.174346923828125,-1.225387573242188,0.3744049072265625,-0.09770605407282709,0.4403768557460857,1.241133202833912
529997.2380671666,0.091461181640625,-1.711349487304688,0.2711944580078125,-0.494061123316012,1.157310740155886,1.808624601622243
529997.2974291667,0.784637451171875,-1.955673217773438,1.090866088867188,-0.5692767819831199,1.510506887089356,2.078629188739926
529997.3567891667,0.4160003662109375,-2.103515625,0.3522491455078125,-1.490758216025873,3.427962365606014,3.189030476822939
529997.4161461667,-0.2716827392578125,-0.8913116455078125,0.2952117919921875,-0.832844508746082,-1.196518596672359,2.242674585566627
529997.4754761667,0.797607421875,-0.2545318603515625,-0.06201171875,0.667486173501972,1.016155212898416,-1.176993631140444
529997.5348471667,0.1125640869140625,-0.40350341796875,-0.1186676025390625,1.169007876295732,-0.3908953226924135,-3.111833426304812
529997.5942201667,0.0265960693359375,-1.01361083984375,-0.0412750244140625,1.295217743515677,-1.452347976255878,-5.141262844434396
529997.6535601667,-0.142608642578125,-1.482223510742188,0.310577392578125,1.4729640388864,-1.303043975011093,-5.745060585731559
529997.7129331667,-0.8297576904296875,-2.094696044921875,0.6558380126953125,1.054290081811697,-1.736966926171481,-3.023489448728049
529997.7722751667,-2.848373413085938,-0.9328155517578125,-0.03009033203125,-0.1983453137702675,-1.61079354425847,-1.053551320925309
529997.8316141667,0.433685302734375,-2.523529052734375,-0.464874267578125,-0.08423738317586035,0.8554821769600826,1.452937600121222
529997.8909841666,-0.9112701416015625,-0.648193359375,0.8330535888671875,1.212156944909414,-2.105213928005533,5.22005512844548
529997.9503401667,0.1166534423828125,-0.675079345703125,-0.1227874755859375,-0.7353728128491819,0.6796791902367908,1.050596810011975
529998.0097001666,-0.15606689453125,-0.9898529052734375,0.338226318359375,0.04983946190417889,0.3217615250067195,1.092218822056605
529998.0690531667,0.0677642822265625,-0.985931396484375,0.2818603515625,-0.03736947641599187,1.015178099094466,0.7775487624005487
529998.1284141667,-0.122039794921875,-0.971588134765625,0.166259765625,-0.02008715883803166,0.6423070506597088,1.15366966631353
529998.1877711667,-0.126922607421875,-1.144271850585938,0.379638671875,-0.04080442158997607,0.7766912245295432,1.205472410573315
529998.2471221667,0.0110931396484375,-1.387191772460938,0.094268798828125,-0.4971408028005797,1.194287932943309,1.905212128037237
529998.3064831666,0.6519622802734375,-3.08685302734375,0.974395751953125,-0.5642796265136952,1.29412717904929,2.850598628656759
529998.3658421667,0.35894775390625,-2.133758544921875,0.5084381103515625,-2.007019982821004,3.8567262411027,4.537752191902744
529998.4252051667,0.7039337158203125,0.2267913818359375,0.1025238037109375,0.1988252153986997,0.1484302180911303,-0.2104610988334739
529998.4845381667,0.38470458984375,-0.5977020263671875,-0.0397491455078125,1.59296341444428,0.1941934456308339,-2.516922653565243
529998.5439021667,0.20562744140625,-1.083404541015625,-0.1033477783203125,1.635908484918462,-1.229736737581136,-5.203250049334863
529998.6033391667,-0.0678863525390625,-1.899978637695312,0.13214111328125,1.138929602312159,-1.015141880103641,-5.862444204466764
529998.6627071667,-0.5068511962890625,-1.990478515625,0.5979461669921875,1.0668847032389,-2.346757578869649,-5.807282681440171
529998.7220601666,-3.273223876953125,-1.473602294921875,0.47027587890625,0.6761542302179619,-1.654011855060494,-2.050348548492157
529998.7814201667,-0.315704345703125,-2.466156005859375,-1.988540649414062,0.2028758834167103,0.3698446321719912,2.026554269416735
529998.8407731667,-0.3490142822265625,0.07342529296875,1.01611328125,1.044470474240357,0.6607888559926407,3.633246811912592
529998.9001291667,-0.946136474609375,-1.429763793945312,-0.108306884765625,-0.05912430672863115,0.4774163665030168,3.060234147552308
529998.9594871667,0.194061279296875,-1.0660400390625,0.1912689208984375,0.09735185364784656,-0.3012163024611942,0.5789547093844679
529999.0188391667,-0.243560791015625,-0.839263916015625,0.112213134765625,0.03155845891743897,-0.1730519413172399,1.240499903126691
529999.0782081668,-0.2034759521484375,-0.924896240234375,0.2493438720703125,0.01836143045166031,-0.05247306190615825,1.052630932452577
529999.1375561667,-0.2012939453125,-0.9583740234375,0.1461944580078125,0.015292403611453,0.2235886187948015,1.152976179165673
529999.1969331667,-0.2294158935546875,-1.23504638671875,0.2682952880859375,-0.05460332446211263,0.6100745456703708,1.708277224380275
529999.2562861667,-0.054229736328125,-1.501663208007812,0.3730010986328125,-0.1744061587315452,0.9909044510228299,1.964099413428851
529999.3156471667,1.557449340820312,-2.984420776367188,1.62939453125,-0.6407570909052828,1.53844531113705,2.576062939260415
529999.3750031667,0.003387451171875,-0.6901702880859375,0.9325408935546875,-2.135182479752195,4.532251698987294,3.013463712488337
529999.4343611667,0.7861785888671875,0.208770751953125,0.138885498046875,-0.1399911932288872,-0.3605736357852073,-0.09415020138535329
529999.4937171667,0.1918487548828125,-0.8102264404296875,0.1272430419921875,1.853013638039466,-0.8036770358553161,-3.425664057585275
529999.5530751667,0.13177490234375,-0.9283294677734375,0.04156494140625,1.405887533142792,-0.7945269469820219,-5.449052361098124
529999.6124331667,0.103302001953125,-1.620346069335938,0.4006500244140625,1.374018017010032,-1.329259333833506,-6.104025938534468
529999.6717891668,-0.8693695068359375,-2.379486083984375,0.87042236328125,1.829674759510447,-2.247890919193765,-5.781369591401481
529999.7311241667,-3.057449340820312,-0.9501190185546875,-0.2607421875,-0.1986355983290861,-3.151376574802526,-1.542857636431093
529999.7904821667,1.001693725585938,-4.076904296875,-2.71917724609375,0.5581974992161723,0.3017942084177414,2.021075614422224
529999.8498371667,-0.62322998046875,-0.6282196044921875,0.4276885986328125,0.8969595793575217,-1.195828837950029,4.981772518336167
529999.9091881667,0.0540924072265625,-0.5749969482421875,0.0958099365234375,-0.3627193446754842,0.9144395034883657,1.052444511176272
529999.9685681667,-0.2179718017578125,-0.9999542236328125,0.3476715087890625,0.05964788419894073,0.1323822756784218,1.065533415301793
530000.0279241666,0.0369110107421875,-0.945159912109375,0.352813720703125,-0.03446982662111359,0.6916466372272798,0.594586932351015
530000.0872911667,-0.126953125,-1.06390380859375,0.20843505859375,0.02197107899315371,-0.2245193935957842,0.818966776305679
530000.1466471667,-0.1256256103515625,-1.05792236328125,0.3153839111328125,-0.08697085171871768,0.6792240560064963,1.099936130263437
530000.2060041667,-0.0325927734375,-1.458114624023438,0.30535888671875,-0.1836521214040823,0.9987969952293887,1.405476341070484
530000.2653571666,0.3294830322265625,-1.997955322265625,0.389495849609375,-0.7478997899846966,1.386571359440338,2.545711424949
530000.3247101667,0.9907989501953125,-2.138198852539062,0.42755126953125,-1.289809395973944,2.811680790382995,2.522274542091866
530000.3840651667,0.4372711181640625,-0.42120361328125,0.50054931640625,0.04522100794176348,-0.3031998248410853,6.409426067068177
530000.4434261667,1.050003051757812,0.1618804931640625,0.006805419921875,-0.3350118166942997,0.8139160912983439,-1.807309532675962
530000.5028211251,0.079193115234375,-0.89007568359375,0.2428436279296875,1.527532209622123,-1.838854942104059,-4.792604457682312
530000.562175125,-0.111175537109375,-1.347381591796875,0.2605133056640625,1.413939867014756,-0.5531561352726523,-6.517611660030465
530000.6215371251,-0.08453369140625,-2.420364379882812,0.2356414794921875,1.647552890468724,-0.5523294900702918,-7.314804963895875
530000.6809011251,-2.169601440429688,-1.664337158203125,0.6038818359375,0.9815740661437372,-1.326066736318719,-2.95770723927422
530000.7402361251,-1.562698364257812,-1.449478149414062,0.0936737060546875,0.71668967253784,-0.3759941374450931,2.567972788500972
530000.799621125,0.0091400146484375,-1.240142822265625,0.8005523681640625,-3.553615099525914,-6.198644323639457,0.5666333282851073
530000.858979125,-1.348922729492188,-1.006240844726562,0.2039031982421875,-0.2738139727409329,0.5870728233353565,3.255049707613785
530000.918338125,0.2077789306640625,-0.814208984375,-0.0135040283203125,-0.05206639720770315,1.471761887970338,0.2555430897663353
530000.9777001251,-0.0960540771484375,-0.8659210205078125,0.44683837890625,0.1250583163645949,-0.3154642142931182,0.4171080183537364
530001.0370641251,0.1445770263671875,-1.034469604492188,0.006256103515625,-0.174199497430955,0.6265171685566291,0.5099681845070553
530001.096427125,-0.1239013671875,-1.001144409179688,0.2493133544921875,-0.07966526821641232,0.4230268938764375,1.207224237938369
530001.155763125,-0.133087158203125,-1.199020385742188,0.370208740234375,-0.1938578873334839,1.110309142709295,1.518292638536202
530001.215127125,0.2606964111328125,-1.642776489257812,0.027496337890625,-0.5902118913122328,1.330342974081059,1.880217828574625
530001.2744961251,1.039718627929688,-2.935653686523438,1.168228149414062,-0.7358623018575384,2.072580617272139,3.726627359742912
530001.3338501251,0.542816162109375,-1.1978759765625,1.012420654296875,-0.444957759137131,1.207124103081382,5.942724662894984
530001.393205125,0.908843994140625,0.20458984375,-0.0177764892578125,-0.8304812195947456,0.03098055296089178,0.2199115922777291
530001.452569125,0.1189727783203125,-0.6775054931640625,0.2156829833984375,1.59686388017681,-1.662423449363509,-3.54634946343996
530001.5119281251,-0.0018310546875,-1.142074584960938,0.284637451171875,1.652009424236863,-1.023736167257436,-5.696895186888605
530001.571288125,-0.49200439453125,-1.75628662109375,0.301177978515625,1.862471055702555,-1.132774238084659,-5.943948651731985
530001.6306301251,-1.16925048828125,-2.068588256835938,0.4776611328125,1.383367310332864,-2.168812877997716,-4.789031560763862
530001.689992125,-2.10675048828125,-1.115081787109375,-0.269256591796875,0.6490251408255427,-2.088001917880351,-0.7814156723033439
530001.7493771251,0.193756103515625,-2.055496215820312,-1.512496948242188,0.1816877737840398,-0.611963792147673,1.521480442361027
530001.808725125,0.5462799072265625,0.4847564697265625,1.278030395507812,0.965266998156964,0.3819923751682786,4.042393576503645
530001.868087125,-1.404251098632812,-0.970550537109375,-0.5194091796875,-1.132222697422903,-0.1687562624789421,3.275778155642308
530001.927450125,0.061981201171875,-1.109527587890625,0.34368896484375,-0.0548440742246558,-0.7711939274074017,0.4838739995142409
530001.9868091251,0.00238037109375,-0.9552001953125,0.189849853515625,-0.123245236294469,0.8534089060514558,0.7164052469334196
530002.046180125,-0.1417694091796875,-0.9680633544921875,0.233642578125,-0.1395294010958675,0.09527591957812978,0.8846467203736493
530002.105539125,-0.15875244140625,-1.080459594726562,0.27923583984375,-0.1573560688006399,0.6619252268297775,1.162982208013319
530002.164898125,0.0045166015625,-1.416748046875,0.28271484375,-0.2536426580124547,1.059411873220137,1.387720513450707
530002.2242571251,0.2611846923828125,-1.898391723632812,0.400543212890625,-0.7148142744982062,1.191670844540088,2.746134537001747
530002.283620125,1.38604736328125,-2.370819091796875,1.506698608398438,-0.7258647951253809,3.401194667173518,2.213318560870684
530002.3429891251,0.0465850830078125,-0.233306884765625,0.418914794921875,-1.478868267023105,1.966844067248286,6.445492192446683
530002.402329125,1.420211791992188,0.0894927978515625,-0.1402130126953125,0.5677065822044092,-0.5036003000245668,-2.599238832330721
530002.461716125,0.1798248291015625,-0.9351043701171875,0.341796875,1.877588223314281,-2.791630649484115,-4.401403137780649
530002.521066125,-0.2852325439453125,-1.30560302734375,0.221527099609375,1.498488840038155,-1.70550833579492,-5.105332007639265
530002.580435125,-0.0233001708984375,-2.226516723632812,0.14532470703125,1.285242074704458,-1.286695095395206,-6.977509220250723
530002.639801125,-2.172454833984375,-1.891708374023438,1.01513671875,1.187252660291647,-1.729379580225845,-2.717597700657112
530002.6991711251,-1.682937622070312,-1.6839599609375,-0.0509490966796875,-0.7508164840105513,-3.270165277328857,-1.344613522782249
530002.7585351251,0.367095947265625,-0.707122802734375,0.6728668212890625,-2.402343343457892,0.04326464980499127,-1.102674392496256
530002.817896125,-1.205856323242188,-1.3623046875,0.233062744140625,-0.002431466075242345,0.1110341100642376,3.46294937811082
530002.877260125,0.2140655517578125,-0.7988128662109375,-0.0891876220703125,0.08630985513616002,1.206392799046046,0.08799137504843604
530002.936624125,-0.0965423583984375,-0.923858642578125,0.42926025390625,0.3243969892214619,-0.5009672326548055,0.4128522869317898
530002.995990125,0.20989990234375,-0.9862060546875,0.177001953125,-0.1180249079256956,0.3480037817561423,0.6335138253724852
530003.055332125,-0.0611419677734375,-1.01287841796875,0.2481689453125,-0.09258852372213083,0.4118738415472947,1.385346571655011
530003.1147161251,-0.2314605712890625,-1.115219116210938,0.295318603515625,-0.08459797518745708,0.5491632578502965,1.536259388514313
530003.174079125,0.09051513671875,-1.542709350585938,0.0951385498046875,-0.4048468246950116,1.124268634195164,1.948663731750751
530003.233438125,1.121536254882812,-3.1314697265625,1.204757690429688,-0.6417014478278248,1.890235309014958,3.318311501411963
530003.2927961251,0.214385986328125,-1.557907104492188,0.5059967041015625,-0.3801108518581376,0.5138212459721819,6.262712522615711
530003.352155125,0.7329559326171875,0.110076904296875,0.0161285400390625,0.07062863000555544,-0.1551658851201587,0.01879925413486934
530003.4115121251,0.226531982421875,-0.733978271484375,0.0205230712890625,1.575488284003398,-1.235127241943565,-3.774912600834921
530003.470861125,0.0258941650390625,-1.108642578125,-0.086517333984375,1.459043695868556,-0.9523144478792547,-4.642532134463039
530003.530223125,0.0789947509765625,-1.828460693359375,0.2378082275390625,1.212469067389171,-1.056757234245546,-6.343737600884718
530003.589578125,-0.8318634033203125,-2.512237548828125,0.925567626953125,1.408610881673507,-2.077787896151571,-5.427432286736643
530003.648912125,-2.92169189453125,-1.060623168945312,-0.2958831787109375,-0.02181075669553095,-1.936309327453874,-1.40375647163851
530003.708293125,0.831787109375,-2.489990234375,-0.03515625,0.4294858584682067,-0.4062854643158724,1.799658803496382
530003.767656125,-0.046783447265625,0.25701904296875,0.7892303466796875,2.57186579738245,0.8860834957817471,6.473164566701479
530003.826993125,-0.4228515625,-0.64044189453125,-0.1705474853515625,-0.9155825322282277,0.6998459775914159,1.715411832940597
530003.8863791251,0.212677001953125,-1.203659057617188,0.332489013671875,0.2941248371105312,0.8121221859880664,0.3908902626863423
530003.945737125,0.094146728515625,-0.9975433349609375,0.1865081787109375,-0.007976167464787319,0.9307263314508543,0.8499095123790917
530004.005088125,-0.160064697265625,-0.95465087890625,0.2521209716796875,-0.03924221129453559,0.1728154526124409,1.159906256954277
530004.064466125,-0.1636199951171875,-1.047286987304688,0.2901611328125,-0.07661008981387342,0.3841860209581768,1.14050246525196
530004.1238451251,0.001434326171875,-1.412094116210938,0.237945556640625,-0.1303058089764871,0.7964177913559781,1.486610608944184
530004.183215125,0.204925537109375,-1.74908447265625,0.469482421875,-0.4032308185455515,1.342716819453895,2.752074984129278
530004.242586125,1.701751708984375,-2.591049194335938,1.2412109375,-0.6178517750017292,3.241545882990429,1.975302799502596
530004.301952125,0.392303466796875,-0.403045654296875,0.6166534423828125,-1.002464434366537,1.390701922291051,6.697228027118642
530004.361317125,1.554458618164062,0.20263671875,-0.0556640625,-0.4893957977184112,-1.145674057772785,-2.395457474143383
530004.420679125,-0.0515899658203125,-1.063247680664062,0.155914306640625,1.0595024206972,-1.525855749715918,-5.001994965757574
530004.480027125,-0.0454254150390625,-1.401580810546875,0.206634521484375,0.8537998580994794,-1.219552543256564,-6.008482371266785
530004.5394191251,-0.3642730712890625,-2.150894165039062,0.5967864990234375,1.080985075946433,-1.17102175871205,-6.334011203951531
530004.5987841251,-2.278701782226562,-1.665756225585938,-0.106719970703125,0.1907366625359111,-0.7533882986752409,-2.620108960529235
530004.658155125,-1.586334228515625,-1.185195922851562,0.0261077880859375,0.4109582467645254,-1.012551955943539,1.473777900915528
530004.717498125,-0.5675048828125,-3.023162841796875,0.0089111328125,-2.125206810940976,-4.162623315495817,2.678770409860411
530004.7768671251,-0.8910980224609375,-1.235092163085938,0.609466552734375,0.7939346599555883,0.6118982783848571,1.844022806199358
530004.8362331251,0.1917877197265625,-0.667510986328125,-0.030303955078125,0.1462501544227914,1.53395708575194,0.2677403675588982
530004.8955971251,-0.1891632080078125,-0.8801422119140625,0.3232421875,0.03143595350729533,-0.5202165610138982,0.5408358194377277
530004.954971125,0.013824462890625,-0.9890899658203125,0.2493438720703125,0.001425856447628424,0.3670563025106782,0.4233770995597829
530005.014340125,-0.0502777099609375,-0.9745025634765625,0.3150787353515625,0.04807218820480232,0.4036888822530451,1.105170839702097
530005.073708125,-0.2266387939453125,-1.084152221679688,0.3147735595703125,-0.01029205234872022,0.473792869523855,1.326077388963079
530005.1330801251,0.0994720458984375,-1.59814453125,0.266448974609375,-0.2285205268175193,1.003842886546762,1.724103858106398
530005.1924431251,0.70892333984375,-2.5364990234375,0.5121307373046875,-0.2953291185554651,2.232651512488005,3.593961457408397
530005.251800125,0.0743560791015625,-1.717300415039062,0.142425537109375,-0.6443848489421886,2.805149121493467,2.11867194625814
530005.3111601251,0.390625,-0.0391693115234375,0.3431854248046875,-0.2297264061591071,-0.1384582777054376,2.312291746990171
530005.370545125,0.3977508544921875,-0.3531341552734375,0.158416748046875,0.8319640676897018,-0.9956744388512707,-3.134097985650092
530005.429911125,-0.062042236328125,-0.832275390625,0.0359344482421875,0.7381068140242573,-0.8728047082705029,-5.760809455153852
530005.4892828751,0.0583648681640625,-1.538894653320312,0.2242889404296875,0.8126513560966652,-0.4875638092045457,-6.513286686420177
530005.548650875,-0.4506072998046875,-2.74810791015625,0.500946044921875,0.9287124490345364,-1.920192142852823,-6.645587203053133
530005.608015875,-3.987899780273438,-1.186111450195312,-0.6116790771484375,-0.8526839936027363,-1.739433279657003,-1.044976474847472
530005.667385875,0.7315521240234375,-3.504837036132812,-1.295700073242188,0.5037012338298809,-0.2430928116702148,1.776575055799793
530005.7267568751,-0.7376251220703125,-1.302536010742188,0.5912322998046875,1.504706788551272,-1.520571239164874,2.681162993783738
530005.786127875,0.00982666015625,-0.6411895751953125,-0.138275146484375,-0.3854036182085611,1.009307959419713,0.4726035017810256
530005.845497875,0.1320953369140625,-1.06561279296875,0.37841796875,0.4070812168495881,-0.4080085295411536,-0.1061621231660467
530005.904865875,0.14947509765625,-0.9857330322265625,0.1962432861328125,0.01856383069450634,1.110537641930824,0.5239045064914399
530005.964232875,-0.0970611572265625,-0.9917144775390625,0.2827301025390625,0.0218091587988769,0.02904736432560326,1.263847303771198
530006.0236048751,-0.2164764404296875,-1.03643798828125,0.1956939697265625,-0.09645490099270787,0.2551516050860936,1.322053885188188
530006.082978875,0.010528564453125,-1.390594482421875,0.2819366455078125,-0.1578924294441818,0.8223231582275059,1.523618428084143
530006.142342875,0.1864013671875,-1.7730712890625,0.44451904296875,-0.4757060844509679,1.331611970340482,2.793733747796951
530006.201711875,1.33544921875,-1.758346557617188,0.7821197509765625,-1.279697373314913,3.145964232519158,2.359772180800757
530006.261078875,-0.0648651123046875,-0.2249755859375,0.70281982421875,-0.2725644175574677,-0.403616444271395,6.480734868416138
530006.3204498751,0.853607177734375,0.1419830322265625,-0.072967529296875,-0.4410386512769704,-0.0864704437498918,-2.264289866238146
530006.379806875,0.094757080078125,-0.7427978515625,0.0927886962890625,1.052350767905901,-0.6723107561327596,-4.35162279805267
530006.439187875,0.135955810546875,-1.1800537109375,0.0519256591796875,1.142226063109459,-0.9378516189473614,-5.406024199997931
530006.498532875,0.141448974609375,-2.003921508789062,0.2895660400390625,1.143005304044416,-1.165542304769212,-6.779588946990432
530006.5579108751,-1.227249145507812,-2.3409423828125,0.6323089599609375,0.9109363813904755,-1.288803520030221,-3.945174880910303
530006.6172768751,-2.437713623046875,-0.947845458984375,-0.0369873046875,-0.3562180358223827,-1.1266614844346,-0.4183602366982916
530006.6766248751,-0.1930084228515625,-2.32037353515625,-0.1250457763671875,-2.334248977545656,-4.776462505683124,2.150363030597865
530006.736002875,-0.914093017578125,-1.046676635742188,0.754302978515625,0.5982919220595332,-0.4257928529845938,2.542885278400207
530006.795370875,0.053924560546875,-0.6102142333984375,-0.0313568115234375,-1.013900580719555,-0.3319779435804815,1.660663632515184
530006.854702875,-0.0919036865234375,-0.9029693603515625,0.313385009765625,0.2332817262143629,-0.4168986938920562,0.2754470231213695
530006.9140908751,0.1742401123046875,-1.025665283203125,0.23187255859375,-0.01238955802326663,0.5978884531543862,0.3291565907216515
530006.973434875,-0.0363922119140625,-1.002716064453125,0.224334716796875,-0.09167825526154175,0.5930947631922436,1.211737763353835
530007.032803875,-0.157073974609375,-1.012481689453125,0.301666259765625,-0.07267606825160837,0.5775498919094511,1.384593962330954
530007.0921598751,0.0495758056640625,-1.430709838867188,0.11572265625,-0.2576320733253935,1.141821262623767,1.576539700001762
530007.151535875,0.2808074951171875,-1.984664916992188,0.5172119140625,-0.322348485710973,1.391267844022693,3.229100398584271
530007.210897875,1.169586181640625,-1.662612915039062,0.4879302978515625,-0.6111496638024358,2.088113504330026,3.601803934186462
530007.2702558751,-0.1474456787109375,-0.43743896484375,0.440032958984375,0.2067257490885288,-0.2611527722864782,7.385402168600567
530007.3296198751,1.107009887695312,0.2337188720703125,-0.17523193359375,-0.1421377010674911,0.2644095519835361,-2.738083268394219
530007.3889878751,0.0589599609375,-0.85992431640625,0.07586669921875,0.8456628357048513,-1.445686611421263,-4.655495870017327
530007.4483528751,0.013336181640625,-1.345367431640625,0.10076904296875,0.5497622027794553,-1.556494885425062,-5.765079567645685
530007.5077178751,-0.0275115966796875,-1.97259521484375,0.641571044921875,0.6179423224787919,-0.9495767182786532,-6.684154036695225
530007.5670818751,-1.621871948242188,-2.360198974609375,0.5252227783203125,0.3681122458828946,0.05717354123014811,-2.933816021135119
530007.6264508751,-2.065658569335938,-1.038009643554688,0.09332275390625,-0.08048339130328466,-2.065982635671467,-2.280654991136683
530007.6858158751,1.12457275390625,-3.471038818359375,-2.127456665039062,-2.089569454497972,-5.02771577556556,2.418658400927935
530007.7451798751,-0.432464599609375,-0.600982666015625,0.7097930908203125,0.5555045107218841,-0.208143616052887,2.753644118643552
530007.804541875,-0.1660003662109375,-0.5120697021484375,-0.1352081298828125,-0.05049673006121045,1.150583062610128,0.5841867556620376
530007.863909875,0.1130218505859375,-1.104080200195312,0.3240203857421875,0.3056627162171905,-0.9090489991259363,0.1519365359823286
530007.923254875,0.10260009765625,-1.010833740234375,0.1431121826171875,-0.1074100804528578,0.5522783573773622,0.4266123076520112
530007.982632875,-0.2037353515625,-0.9441070556640625,0.3016204833984375,-0.02544437368683506,-0.1047043087853373,0.8964993851211559
530008.041990875,-0.2118988037109375,-1.040252685546875,0.2489013671875,-0.08822573322436301,0.4008736546647224,1.100874628231581
530008.101370875,0.1120452880859375,-1.4334716796875,0.2319793701171875,-0.29562845786199,0.9518398725730025,1.343053975647899
530008.160734875,0.2068939208984375,-1.80377197265625,0.4820709228515625,-0.5057609226169482,0.9751718268831867,2.238054533707558
530008.220099875,2.051239013671875,-2.647964477539062,1.164520263671875,-0.5001704148566538,1.888888015819487,3.455893599118765
530008.279464875,-0.0806427001953125,0.187957763671875,0.6897735595703125,0.293208709695544,-0.1796392702735509,7.624370809006686
530008.3388268751,1.2215576171875,0.003662109375,-0.06097412109375,0.2812207563646613,-0.3917161089403759,-3.510885745100029
530008.398194875,0.03289794921875,-0.961090087890625,0.1316375732421875,1.247445427249618,-1.321702880556515,-4.311324377069809
530008.457561875,-0.135650634765625,-1.376510620117188,0.2750091552734375,0.7760323584758576,-1.942126736539043,-6.047446548543516
530008.516926875,-0.2055206298828125,-2.022598266601562,0.2725982666015625,0.7400631721610295,-1.005036249031226,-6.544918115951484
530008.576299875,-3.061752319335938,-1.449996948242188,1.127288818359375,0.9428256049153023,-1.088823557982863,-4.149887280214731
530008.635665875,-1.89654541015625,-1.257720947265625,0.25286865234375,0.8903837019938979,0.07860666168310582,0.1828835331134854
530008.6950058751,0.1918792724609375,-2.734909057617188,-0.0580596923828125,-1.127107830233297,0.7544160125399024,-2.444431408693286
530008.754397875,-0.8919830322265625,-0.4421539306640625,0.407135009765625,0.1427182701851284,1.688029210612403,4.156574477711921
530008.8137648751,-0.0773162841796875,-0.6555023193359375,-0.0387725830078125,-0.9336376991545289,0.1506465007502943,0.9902549060329595
530008.8731328751,0.1959075927734375,-1.016250610351562,0.2532501220703125,-0.03161864635807476,0.1147915640462304,0.3589930496782453
530008.9324998751,0.084075927734375,-0.9912261962890625,0.1897735595703125,0.1856468290605516,0.9054036642258358,0.9366172437821095
530008.9918488751,-0.19561767578125,-0.915985107421875,0.26702880859375,0.05125839413297311,-0.07930760568201467,1.0326902474745
530009.051205875,-0.1174163818359375,-1.053329467773438,0.3469696044921875,-0.0376661525614267,0.2888025096720079,1.181011275960937
530009.1105628751,0.0481109619140625,-1.35205078125,0.2488555908203125,-0.1996390774278279,1.043827320837103,1.811080036147296
530009.169912875,0.18646240234375,-1.848602294921875,0.3679351806640625,-0.2407140761845561,1.228650700488602,2.521043096403814
530009.2292978751,1.178375244140625,-1.581253051757812,0.558258056640625,-0.1797420682916279,1.857956731338761,3.309290309535429
530009.288652875,-0.1745758056640625,-0.46685791015625,0.4651947021484375,-0.066378757538007,0.1149175315657912,5.586149763486532
530009.348003875,1.26141357421875,0.100555419921875,-0.0680999755859375,0.134876858671499,-0.09898090928664802,-2.160490499591218
530009.407381875,0.1180419921875,-0.7112274169921875,0.0746307373046875,1.234246800887185,-1.358985005288752,-3.840857263115245
530009.466718875,-0.0597991943359375,-1.385452270507812,0.0761871337890625,0.6560825177142527,-1.096229542658265,-5.581443425208144
530009.526082875,-0.2755584716796875,-1.830352783203125,0.70013427734375,0.5033731323835831,-1.231127706618484,-5.873149046784446
530009.5854628751,-0.9777679443359375,-2.000625610351562,0.441986083984375,1.123614295515331,-1.254086818376057,-5.126475908797841
530009.644819875,-1.915512084960938,-0.9454345703125,-0.3583984375,-0.007273625569224416,0.1478927921831523,-1.071798768082314
530009.704158875,-0.53369140625,-1.318923950195312,-0.5184173583984375,0.1666723389259551,-0.999144537751644,2.437089606200156
530009.763507875,0.941680908203125,-0.0960235595703125,0.87042236328125,-1.007191545301428,2.319008505575459,-2.448845864516202
530009.822869875,-1.638687133789062,-2.185745239257812,0.6734619140625,0.3141518085079271,0.8961385267934502,3.444842545859372
530009.882249875,0.1298065185546875,-1.045013427734375,0.3426971435546875,0.3665202081832452,-0.2573969162011395,-0.6354632592904232
530009.9416118751,-0.0331573486328125,-0.84661865234375,0.454345703125,-0.1069999536449856,0.6241906310283358,0.2670000087758562
530010.0009778751,0.1168212890625,-1.021881103515625,0.313690185546875,-0.2133351822818874,0.433259025100631,0.3873716942541297
530010.0603438751,-0.0430908203125,-0.9472808837890625,0.212799072265625,-0.1797591125226045,0.1796299492097356,1.16189723618522
530010.119716875,-0.2211761474609375,-1.017135620117188,0.326324462890625,-0.1614759790069925,0.4890077751475866,1.434560723335239
530010.179085875,0.0140838623046875,-1.34210205078125,0.221649169921875,-0.3001233411498257,0.9284724982203203,1.585269009422823
530010.2384548751,0.0646820068359375,-1.653045654296875,0.3768768310546875,-0.4928190249835991,1.316967513822245,2.814139420701356
530010.2978218751,1.616806030273438,-2.098464965820312,0.838714599609375,-0.8994981045085851,3.207436648380912,2.716348145473647
530010.357189875,-0.0527191162109375,-0.261566162109375,0.700286865234375,-0.3879107180587617,0.3812184605555016,5.79730754526117
530010.416556875,1.026458740234375,0.0838775634765625,0.1194000244140625,0.3572822349939784,0.3203055748387732,-2.370731088686433
530010.4759241251,0.154693603515625,-0.91961669921875,0.1278076171875,1.29600337603725,-1.399325504216837,-4.180405508410385
530010.535288125,-0.075775146484375,-1.388107299804688,0.208526611328125,1.074275507896088,-1.567126757128877,-5.099595558651234
530010.594646125,-0.5631866455078125,-1.629119873046875,0.429351806640625,1.138860892756035,-0.7093337552909321,-5.153796745788745
530010.654001125,-0.90289306640625,-1.904373168945312,0.3578948974609375,0.7897412465031495,-2.016354362441731,-4.446705105819551
530010.7133581251,-2.389266967773438,-1.050521850585938,-0.325286865234375,0.02626036624483534,-1.271552627753124,-0.08935171773324851
530010.7727411251,0.5930938720703125,-2.182342529296875,-0.440673828125,0.2873513531940237,-0.9932728001802373,1.813529611717951
530010.832099125,0.2497711181640625,0.3790435791015625,0.88641357421875,1.772338499137695,-0.495069396104716,4.622703302250745
530010.8914731251,-0.8526153564453125,-0.715911865234375,0.0262603759765625,0.6961258078646841,0.5342681978734833,2.895811114483034
530010.950845125,0.135589599609375,-1.140243530273438,0.339599609375,0.2060786009436396,0.3659572159288025,0.003520166328866737
530011.0102171251,0.0233001708984375,-0.937835693359375,0.3729248046875,0.1224169931954543,0.754599770655118,0.4362124707495288
530011.0695861251,0.0051116943359375,-1.005767822265625,0.2238006591796875,0.02705185772080688,0.6634402991739237,0.7921183840921543
530011.128959125,-0.04132080078125,-0.973297119140625,0.225982666015625,-0.1716396669911709,0.2905929528728681,0.8536975927136204
530011.188337125,-0.05987548828125,-1.112945556640625,0.3451995849609375,-0.08499798198318698,0.4186164327951573,1.18701830211572
530011.2477141251,0.0686492919921875,-1.422683715820312,0.1685333251953125,-0.4515331038685367,0.9338848405036883,2.030684832267448
530011.307089125,0.556854248046875,-2.402191162109375,0.7327880859375,-0.4362465592114818,1.104849662474633,2.754683816733119
530011.366436125,0.280975341796875,-1.487319946289062,-0.1425628662109375,-1.463746838353635,3.208095780750707,2.59776237582238
530011.4258251251,0.2527923583984375,-0.0564422607421875,0.3162841796875,-0.2261140944565237,-0.3062563348241692,0.1343788475476542
530011.4851921251,0.8498992919921875,-0.1710052490234375,0.0281982421875,1.095354960556283,-0.4538934635426739,-3.294507634956617
530011.544547125,-0.0460205078125,-0.904754638671875,0.118438720703125,1.077848404814538,-0.8889013865311599,-4.082746325972744
530011.603928125,-0.148162841796875,-1.635711669921875,0.3027191162109375,0.9134104580431591,-0.6985277128518266,-5.575051838591953
530011.6633021251,-0.5863189697265625,-1.61822509765625,0.421478271484375,1.04189253430516,-0.9779010343682999,-5.281984809066401
530011.722674125,-1.197662353515625,-1.656158447265625,0.313812255859375,0.4059312638908918,-1.121178035750127,-1.95935632352742
530011.7820491251,-1.824295043945312,-1.03924560546875,-0.00543212890625,0.1779753272244694,-0.8802711467026491,0.2400291111521877
530011.841425125,-0.1695098876953125,-3.464981079101562,-0.88922119140625,0.09365751658368864,1.470411398981559,0.515705698759522
530011.9007961251,-0.50634765625,-0.962310791015625,0.984161376953125,1.131530808171701,0.1920503999016472,4.126641079691648
530011.960154125,0.0993804931640625,-0.4797821044921875,-0.01239013671875,-0.9370433495565222,0.827466521240776,1.114957956708138
530012.0195111251,-0.185760498046875,-0.8940887451171875,0.280120849609375,-0.01054505265227775,0.1575675237911922,1.127044979631571
530012.0788821251,0.2527923583984375,-1.028564453125,0.1767120361328125,-0.1126852699400868,0.7998868249919154,0.4313394185869018
530012.1382441251,-0.119537353515625,-0.960205078125,0.2529449462890625,0.03709623608814974,-0.1355509047433981,1.156948550247635
530012.197605125,-0.17413330078125,-1.031600952148438,0.30548095703125,0.01943681489983431,0.1889006792804104,1.075550096793799
530012.256965125,0.0022735595703125,-1.276840209960938,0.350341796875,-0.1965258421135253,0.9684374914347034,1.331192256152685
530012.3163111251,0.1850128173828125,-1.67333984375,0.25482177734375,-0.4955370471921339,1.079689181760001,1.922465683475424
530012.3757091251,1.655853271484375,-2.5880126953125,0.9337921142578125,-0.4046129991513026,1.827963412193962,3.447017283205531
530012.4350901251,0.0794219970703125,-0.21832275390625,0.882568359375,0.530997569738757,0.4900075258208024,6.647124912266545
530012.494446125,0.9708099365234375,-0.014312744140625,0.306304931640625,0.05952644405323312,-0.2540626385163602,-1.939239337285179
530012.553840125,0.267730712890625,-0.809814453125,0.197845458984375,1.348000531056612,-1.14913030823549,-3.738661119444544
530012.613213125,-0.131072998046875,-1.268722534179688,0.2435302734375,1.106391100113571,-0.8352552021648217,-5.228101603363046
530012.6725661251,-0.24603271484375,-1.960678100585938,0.4492034912109375,0.8202701273431638,-0.8177252106054841,-5.630273016426964
530012.731954125,-1.424911499023438,-1.840621948242188,0.6609344482421875,1.264542388815709,-2.630074243012203,-3.511313448771096
530012.7913281251,-2.128387451171875,-1.066635131835938,-0.0169219970703125,0.4027418621694129,-0.9676582504997462,-0.6851690305078801
530012.850699125,0.5872344970703125,-4.164596557617188,-2.271286010742188,-0.6764610263755391,1.235567728787864,1.096720629563275
530012.910069125,-0.5904998779296875,-1.109420776367188,0.5477752685546875,1.298077445894204,-1.220973872330339,3.337553372920004
530012.9694411251,-0.05999755859375,-0.60113525390625,0.0360260009765625,-0.4800576896721573,0.3540946974852625,0.719615421311401
530013.028812125,-0.03564453125,-0.9136962890625,0.2650146484375,0.3018266989830404,0.2102877270465098,0.8238936243223257
530013.088181125,0.076873779296875,-0.9810943603515625,0.3062286376953125,0.1245459241708637,0.7523102510659768,0.4181184216713125
530013.1475261251,-0.1069793701171875,-0.9717254638671875,0.194091796875,-0.01621438998083843,0.02837837825977535,0.6882508405213198
530013.2068901251,-0.0677032470703125,-1.081192016601562,0.382781982421875,0.06850609061676229,0.6565224719263338,0.8657611798194613
530013.2662571251,0.0818328857421875,-1.4442138671875,0.356201171875,-0.0871998835724645,1.123948522232136,1.29222115465712
530013.325726125,0.2028045654296875,-1.949630737304688,0.1518096923828125,-0.3588119547241199,1.750721354253413,2.769978350873445
530013.3850831251,1.43511962890625,-1.555206298828125,0.6916046142578125,-1.21355936553945,3.635881477179007,2.275521481819446
530013.4444471251,0.3363800048828125,-0.31256103515625,0.6617889404296875,0.4846543057136342,-0.3886588000089649,6.264545842710122
530013.503819125,1.074905395507812,-0.0825042724609375,-0.223175048828125,-0.558389246814658,0.7030577498660514,-3.140697831463527
530013.5631931251,0.0734405517578125,-0.9727935791015625,0.0221099853515625,1.193898845108049,-0.9854393781498783,-4.876788577636371
530013.622563125,-0.181427001953125,-1.6888427734375,0.484100341796875,0.9539853151471703,-1.390965841555078,-5.650533813368069
530013.6819401251,-0.8548736572265625,-1.688796997070312,0.64874267578125,1.06191844043812,-1.009924747528176,-5.170768538783602
530013.7413061251,-2.894332885742188,-1.403305053710938,-0.41595458984375,0.04166462262207166,-1.098352880995385,-1.539813643305133
530013.8006721251,-0.631195068359375,-2.167022705078125,-1.829452514648438,-0.312501713896514,-1.794971906293952,1.780523991064163
530013.8600391251,0.3047332763671875,0.65625,1.227951049804688,1.525103939340189,1.498993775380834,3.912016927442162
530013.919408125,-0.9271240234375,-0.740997314453125,0.043853759765625,-0.4635354382693058,-0.4737009904662473,2.652705519639587
530013.978781125,0.207611083984375,-1.111770629882812,0.4664459228515625,0.6043410261595392,-0.3528272991224938,-0.1674350682621538
530014.038141125,-0.0659027099609375,-0.9189453125,0.33160400390625,-0.05024745818317904,0.4925966510325774,0.5466782622371436
530014.0975161251,0.1149139404296875,-0.9771575927734375,0.21026611328125,-0.3115546938128818,0.1587875178865575,0.5555684265880461
530014.156877125,-0.035675048828125,-0.96429443359375,0.1346435546875,-0.2571095611195199,0.2443671342518178,1.005525471723474
530014.216226125,-0.0821075439453125,-1.155914306640625,0.3436279296875,-0.103551160033333,0.3234334575390713,1.230695741889673
530014.275611125,0.010650634765625,-1.55706787109375,0.14007568359375,-0.535031193525791,0.8388315611926891,2.066869201998355
530014.3349771251,0.9256439208984375,-2.447967529296875,0.9416961669921875,-0.6588293020625604,1.390432676704844,3.260929434668462
530014.3943441251,0.188446044921875,-1.820938110351562,0.0113372802734375,-0.9121577070663859,3.018879783197231,2.897493699659746
530014.453700125,0.2602081298828125,-0.1511993408203125,0.2269287109375,-0.646815782385213,-0.7909508542702635,4.217663664692812
530014.513065125,1.0989990234375,-0.255279541015625,-0.153594970703125,0.5737327831190405,-0.6141960537733775,-2.851700112083616
530014.5724431251,-0.1838531494140625,-0.9386749267578125,0.1106109619140625,1.353754024275619,-1.083310015578072,-3.985607525212103
530014.631813125,0.15673828125,-1.652069091796875,-0.04290771484375,1.012486442180723,-0.2820117152084148,-6.14452782502461
530014.6911921251,-0.714080810546875,-2.2032470703125,0.7573394775390625,1.456931276491905,-3.186280230365214,-5.572933560260904
530014.750566125,-2.8507080078125,-1.204574584960938,-0.2944793701171875,-0.459004868622863,-1.437277413963229,-1.955207118549076
530014.809941125,0.1314239501953125,-2.568283081054688,-1.291107177734375,0.7860618231410961,-1.019241550285709,0.837684537711192
530014.869314125,-0.1300048828125,0.1750640869140625,1.160385131835938,2.781196118017076,1.687155960090966,6.057250709780534
530014.928691125,-0.4943695068359375,-0.65673828125,-0.1496734619140625,-1.391668383450641,0.4336933866744229,1.733048350943538
530014.988069125,0.2708892822265625,-1.141845703125,0.3780670166015625,0.1643207676834151,1.24128127459052,-0.1479210216907072
530015.047436125,0.06640625,-0.973480224609375,0.14996337890625,0.1066580037610194,0.5941951813546643,0.6767363972322532
530015.106805125,-0.0554962158203125,-0.9343719482421875,0.3966827392578125,0.1474965138129485,0.006034456714010546,0.9838281656903802
530015.1661761251,-0.001678466796875,-1.079315185546875,0.2359466552734375,-0.07764126578795209,0.3732859689325915,0.9871326159709506
530015.2255461251,-0.0182952880859375,-1.22967529296875,0.3238525390625,-0.06804323321930653,0.6879086243212447,1.613613032904537
530015.284918125,0.060760498046875,-1.665496826171875,0.306976318359375,-0.4377624305039549,1.215617989062081,2.542412833622827
530015.344286125,1.746902465820312,-2.588699340820312,1.005294799804688,-0.7244698313463974,2.389331138371765,3.017512249977476
530015.4036581251,0.24560546875,-0.102447509765625,0.9687652587890625,-1.243279710672516,2.389296250961485,5.508278933212615
530015.4630531667,1.602798461914062,-0.006988525390625,-0.46124267578125,-0.6195945476190771,-0.1224649300950758,-3.161464096379528
530015.5224131667,0.081634521484375,-1.061859130859375,0.16552734375,1.259181445541379,-1.576329310275645,-4.508898972020607
530015.5817781667,-0.036590576171875,-1.539535522460938,0.079681396484375,0.9414535443216935,-1.339050179265073,-5.67136452678245
530015.6411451667,-0.14892578125,-1.915130615234375,0.3408355712890625,1.026071226901217,-1.736110453564911,-5.972857797997013
530015.7004931667,-1.299224853515625,-1.89410400390625,0.9034576416015625,0.6987096067542791,-1.27181148701108,-3.168420273146815
530015.7598501667,-1.910308837890625,-0.9813690185546875,0.0106964111328125,-0.2879697391991401,0.2209470293095519,-1.197446175680034
530015.8192351667,0.0381317138671875,-1.976058959960938,-1.853729248046875,0.4040739753466706,-0.1098135833366543,2.039401358515277
530015.8785901667,0.5796051025390625,0.957305908203125,1.367599487304688,2.779788903697078,0.4188547857127194,5.965718395746729
530015.9379511666,-1.127838134765625,-0.82501220703125,0.16644287109375,-1.615919330408545,0.4630600640147266,3.191836915979664
530015.9973231667,0.1692657470703125,-1.05657958984375,0.3354949951171875,0.1972369061245765,1.71328503249406,0.01636512489853692
530016.0566821666,-0.0768890380859375,-0.8866119384765625,0.3503570556640625,0.008223308813946673,0.7217954849797399,0.6550305690836714
530016.1160431667,0.182525634765625,-0.95062255859375,0.0449371337890625,-0.1468477677714052,0.8050216658896971,0.6423150401429791
530016.1754051667,0.024749755859375,-0.950653076171875,0.1661376953125,-0.1430911127377394,0.2699220291238911,1.051130507494427
530016.2347671667,-0.0824432373046875,-1.072006225585938,0.3910675048828125,-0.08328983046001016,0.3526246325635388,1.41691568321681
530016.2941351667,0.02069091796875,-1.483596801757812,0.1828460693359375,-0.4364036857157965,1.011316515513851,2.264335672608896
530016.3534961666,0.687591552734375,-2.641738891601562,0.6239166259765625,-0.3877993979251964,1.485929372337341,2.975407140511105
530016.4128681667,0.2781829833984375,-1.594207763671875,-0.00335693359375,-1.405214818651438,3.874646652077843,2.298379393455597
530016.4722401667,0.346649169921875,0.0932159423828125,0.27984619140625,-0.5138420186286846,-0.6182267480832123,-0.04138499070761335
530016.5316031667,0.524627685546875,-0.2519073486328125,0.1112823486328125,0.8593653321455271,-0.6234686480568153,-3.449434368210886
530016.5909671667,-0.09332275390625,-0.7824249267578125,-0.018798828125,1.083272731322811,-0.6353609939045641,-4.124979267171438
530016.6503531667,0.0786590576171875,-1.701858520507812,0.1202545166015625,1.001084384289658,-1.157371992860958,-6.137007590738445
530016.7097131667,-0.5341033935546875,-1.9451904296875,0.57208251953125,0.9603326932892652,-2.541919083556727,-5.320194779122422
530016.7690711668,-2.401016235351562,-1.605911254882812,0.6080169677734375,0.6803774710746096,-1.581477999611095,-3.352610885723312
530016.8284361667,-1.294815063476562,-1.266189575195312,0.14990234375,0.6932133748965735,1.084395786354498,1.046799142297522
530016.8878061667,0.29833984375,-1.7755126953125,0.595611572265625,1.17807114611749,4.178355939635461,0.4959301297690296
530016.9471681667,-0.5218658447265625,-1.12469482421875,0.72125244140625,0.7452137257092427,0.4190055206304178,3.703992088373893
530017.0065281667,0.015533447265625,-0.608856201171875,-0.3315582275390625,-1.566659904989786,0.3158503726511797,1.440078260481665
530017.0658641667,0.00128173828125,-0.917755126953125,0.494964599609375,0.3869908622182483,0.2091375077717046,0.8431323000370581
530017.1252591667,0.269012451171875,-1.013687133789062,0.120635986328125,-0.1720071832216018,0.657505178368573,0.6524579554706549
530017.1846081667,-0.1530303955078125,-0.9838104248046875,0.295867919921875,0.0007115966432691724,0.07609636603959713,1.291031786914291
530017.2439651667,-0.1658935546875,-1.04095458984375,0.3839569091796875,-0.1246316779579642,0.3885237777416979,1.377062010135992
530017.3033211667,0.0398101806640625,-1.403915405273438,0.25054931640625,-0.431311721711565,0.9190723385206676,1.923201781200722
530017.3627001666,0.3328704833984375,-2.085494995117188,0.4442291259765625,-0.5972176028757953,1.286146484210649,2.655611561021082
530017.4220601667,1.1781005859375,-1.595458984375,0.400421142578125,-1.106837445912268,3.080745015319772,3.101373062175198
530017.4814271667,0.055694580078125,-0.2187957763671875,0.5231170654296875,-0.1408966679995142,-0.6731142318336365,2.922597188727051
530017.5407581667,0.8524169921875,0.0518951416015625,-0.0620269775390625,-0.1624320538383309,-0.3570779705383693,-1.889175104584997
530017.6001231667,0.16204833984375,-0.8411102294921875,0.2103424072265625,1.205895853186638,-1.553533716609003,-4.228843614948965
530017.6595061667,-0.0970611572265625,-1.481292724609375,0.27081298828125,1.118298625979533,-1.986924301867484,-5.342232437142828
530017.7188761667,-0.2369232177734375,-2.0404052734375,0.5562591552734375,0.9489226459149297,-2.058311133835385,-5.788136151099155
530017.7782471667,-1.829116821289062,-1.486160278320312,0.2739410400390625,0.7393505102533242,-1.050732098595351,-3.6302432988352
530017.8375941667,-1.734695434570312,-0.9612884521484375,-0.18896484375,0.5924127276370743,0.2862767676941767,-0.3492991433103568
530017.8969841667,-0.197509765625,-5.127182006835938,0.233734130859375,2.474015932610758,3.478962699429358,0.2995986984150801
530017.9563461667,-1.415206909179688,0.5533599853515625,-0.9619598388671875,-2.321166997638969,0.4036084547881247,5.384719976541734
530018.0157151667,0.217071533203125,-1.072219848632812,0.714385986328125,0.932398796615424,-0.5218307029505953,0.1799343485223317
530018.0750761667,-0.183624267578125,-0.929046630859375,0.1118927001953125,0.1557405952833978,0.2876062177103443,-0.1043607610047171
530018.1344411667,0.142822265625,-0.9848480224609375,0.274169921875,0.217352827102381,-0.02730459170825541,-0.4963067007471668
530018.1938051668,0.195770263671875,-0.9672698974609375,0.2939453125,0.1217836934882335,0.05674956598460749,-0.2723737352234181
530018.2531691667,0.0998687744140625,-0.966644287109375,0.227386474609375,-0.00861852191971443,0.01439571727242332,0.3068163976014128
530018.3125361667,0.138671875,-0.9660491943359375,0.2916717529296875,-0.137229495178475,0.3166567778292556,0.4441204612904101
530018.3718991667,-0.039581298828125,-0.9594879150390625,0.1960601806640625,-0.1325583106264761,0.185927259923337,0.561748025581466
530018.4312681668,0.01995849609375,-0.995330810546875,0.217193603515625,-0.1732455531284887,0.339894189920742,0.294621250337722
530018.4906101667,-0.0649261474609375,-0.931365966796875,0.2378082275390625,-0.3823303303106096,0.2511912182290368,0.2848431880793871
530018.5499701666,-0.083953857421875,-0.9243316650390625,0.0806732177734375,-0.463342092774166,0.2094901103000311,0.1051282840308779
530018.6093291667,-0.0560760498046875,-0.9708099365234375,0.191802978515625,-0.4006656617835872,0.1544883769388426,-0.08822946164988912
530018.6686881667,0.043670654296875,-1.005615234375,0.1862335205078125,-0.567027476126439,0.09885094702545215,-0.06850715588119832
530018.7280421667,-0.0289154052734375,-0.9566497802734375,0.06884765625,-0.6148690345808405,0.1435947164998734,0.1718702967415717
530018.7873991667,-0.0411834716796875,-0.9913177490234375,-0.0025634765625,-0.6522795236776195,0.110708938095139,0.16475433030888
530018.8467621667,-0.0988922119140625,-0.914794921875,-0.0215301513671875,-0.4897361497057233,0.2480561449937955,0.01089126359398805
530018.9061021667,-0.0432586669921875,-0.975250244140625,-0.05316162109375,-0.409431190195474,0.3316381242253874,-0.1232308552245825
530018.9654841668,-0.00115966796875,-0.988525390625,-0.041290283203125,-0.2114837526920644,0.2959863867124966,-0.2442576783310155
530019.0249121666,0.0159454345703125,-0.984375,-0.05621337890625,-0.1912075094166371,0.3123081020852652,-0.1932650676748323
530019.0842941666,0.062530517578125,-0.9971466064453125,-0.064056396484375,-0.1773010148364613,0.1073914383252273,-0.05136492057657628
530019.1436371667,-0.00592041015625,-1.015975952148438,-0.0383758544921875,-0.1634610992835375,0.1497881639309617,0.3063162559486959
530019.2030231667,-0.0251007080078125,-0.991424560546875,-0.024169921875,-0.3105730526350786,0.1361676928518605,0.5206437320527469
530019.2623811667,-0.12237548828125,-1.012527465820312,0.0106048583984375,-0.4998439113070101,-0.03930665979291551,0.5576659322625925
530019.3217261666,-0.1490936279296875,-0.8444366455078125,-0.343597412109375,-0.7500377757078122,0.1786200785243776,0.3643486666303946
530019.3810821667,-0.091064453125,-0.942840576171875,-0.1988525390625,-0.04581222970376107,0.2582512582788369,0.2358910914504226
530019.4404701667,-0.0894775390625,-0.9315948486328125,-0.1555023193359375,-0.07088269557354901,0.1412724400293243,0.3362986561330261
530019.4998261667,-0.06005859375,-1.017990112304688,-0.20489501953125,-0.1093414048753833,0.1252942724371759,0.439849283534141
530019.5591971667,-0.305755615234375,-0.8656768798828125,-0.1917266845703125,-0.1049700922621272,0.1703099506588943,0.6077669165858172
530019.6185591667,-0.224761962890625,-0.9221649169921875,-0.2759246826171875,0.08663103236362357,0.3445563197250348,0.1881011983211686
530019.6779161667,-0.276824951171875,-0.909881591796875,-0.2013092041015625,0.1907121614538823,0.2743338217857164,0.09086173007132345
530019.7372781667,-0.178131103515625,-0.97064208984375,-0.1270294189453125,0.1222683888066279,0.1961303626916485,-0.006370281327469538
530019.7966331667,-0.1967315673828125,-0.953460693359375,-0.197601318359375,0.02033323492275498,0.2637650669997369,0.03866963166016855
530019.8559871668,-0.250091552734375,-0.9252777099609375,-0.1509552001953125,0.04002837644832698,0.1515628944813905,0.09321170341720937
530019.9153431667,-0.1664276123046875,-0.934539794921875,-0.138336181640625,0.03312652816727763,0.2760462343666373,0.1110213268910053
530019.9746981667,-0.22454833984375,-0.9651336669921875,-0.1571197509765625,-0.03736681325490179,-0.003848267775164499,0.1545805223125593
530020.0340591667,-0.227081298828125,-0.913330078125,-0.189422607421875,-0.02694107021945959,-0.05043654262057466,0.176417377986773
530020.0934191667,-0.2370452880859375,-0.9359893798828125,-0.1721038818359375,0.008428372217882773,-0.01221432202353942,0.06409270005828298
530020.1527821667,-0.2562103271484375,-0.9342041015625,-0.1493377685546875,0.01681306859388825,-0.03856523574543745,0.0910348355421786
530020.2121481667,-0.2366790771484375,-0.92352294921875,-0.1555023193359375,-0.01068140650008981,0.0006285060172587002,0.06820568604580135
530020.2715181666,-0.2617034912109375,-0.9695892333984375,-0.173004150390625,-0.05673758175970214,-0.06896628485312799,-0.008858739050039578
