accelerometerTimestamp_sinceReboot,accelerometerAccelerationX,accelerometerAccelerationY,accelerometerAccelerationZ,gyroRotationX,gyroRotationY,gyroRotationZ
529604.0067781251,0.0813140869140625,-0.979583740234375,0.0458984375,-0.05922817001114424,0.08378651000330993,-0.03719264251961061
529604.0661601251,0.0586395263671875,-1.006454467773438,0.0581512451171875,-0.03378592685318125,0.06273342263790653,-0.006037386191209633
529604.1255401251,0.0701446533203125,-0.9765472412109375,0.0443572998046875,-0.0116055233983473,0.02109543162673566,-0.02155615849531937
529604.184912125,0.081329345703125,-0.9779205322265625,0.0393829345703125,-0.008485363865210468,0.006334328652753468,-0.007535147988270196
529604.2442851251,0.089385986328125,-0.9817047119140625,0.0406036376953125,-0.008435829068934995,0.01692971504963372,-0.01084971828098282
529604.303643125,0.07269287109375,-0.9805145263671875,0.0445098876953125,-0.007349259344182665,0.01769058017306935,-0.0449664097415519
529604.363013125,0.0908050537109375,-0.9815826416015625,0.037261962890625,-0.007355650930798856,0.01665620840568258,-0.04175730062800642
529604.4223861251,0.0939788818359375,-0.9809112548828125,0.044158935546875,-0.00962413154732835,-0.01070644021433655,-0.01267717942099519
529604.4817641251,0.0770263671875,-0.98187255859375,0.0418243408203125,-0.01288171019271328,-0.02219611610526541,0.008766061044104821
529604.5411471251,0.08245849609375,-0.98297119140625,0.034912109375,-0.01826236085910937,-0.03493747770853151,0.007838215720321213
529604.6005301251,0.0831146240234375,-0.9806365966796875,0.04791259765625,-0.02551468113961315,0.007419833113069765,-0.01075277921730393
529604.659913125,0.121795654296875,-0.9893035888671875,0.031280517578125,-0.05202804768800601,0.0308804181039048,-0.009958091948024288
529604.7192881251,0.087921142578125,-0.9888458251953125,0.042572021484375,-0.05235242070877767,-0.02763162789011714,0.1026068031107909
529604.778664125,0.053985595703125,-0.9853515625,0.02716064453125,-0.05879034632793521,-0.03476916592763851,0.1346595447265486
529604.838043125,0.049957275390625,-0.9822998046875,0.0232086181640625,-0.05234549648994346,-0.03004525078605595,0.06959052981264256
529604.897427125,0.0790252685546875,-0.98065185546875,0.0248870849609375,-0.06076907501786409,-0.009891246604663298,0.06296884607826954
529604.956805125,0.098724365234375,-0.9908905029296875,0.021820068359375,-0.06815242282399978,0.01527322885160443,0.1436961829374055
529605.0161791251,0.15582275390625,-1.019622802734375,0.010284423828125,-0.04828790425309873,-0.03341201903613412,0.4149812179071991
529605.075554125,0.1823272705078125,-1.14276123046875,0.0695343017578125,0.03220827022341831,-0.0915794519850998,0.7162443920035787
529605.1349301251,0.2212677001953125,-1.378005981445312,0.039520263671875,-0.3059109228307859,0.07895500315368818,1.269539011652915
529605.194297125,0.037445068359375,-1.258697509765625,0.1129150390625,-0.1864074278678783,0.6375226817613815,1.52138030750404
529605.253681125,-0.0606689453125,-0.7460479736328125,0.039337158203125,0.1412498031600587,0.9938983767202969,1.078450811853114
529605.3130581251,0.492706298828125,-0.5021820068359375,0.008209228515625,0.5484689717541128,1.625089925622233,-0.47174596391002
529605.3724332501,0.295654296875,-0.7229461669921875,0.02490234375,1.030656657666116,0.4156198439366001,-2.417301786668649
529605.4318152501,0.01983642578125,-0.9120025634765625,0.162078857421875,1.062958138527687,-0.5409740374983029,-3.179510741190341
529605.4911952501,-0.0424041748046875,-1.103347778320312,0.2379150390625,0.735175738928516,-0.258728496746179,-3.091110304598469
529605.55055125,-0.0915679931640625,-1.101577758789062,0.2940673828125,0.798025808022168,0.2523246595889745,-2.824914570471817
529605.60993825,0.0228424072265625,-1.033599853515625,0.1152191162109375,0.9568226469725407,0.8641345210256409,-1.938365820447633
529605.6693252501,-0.0195159912109375,-1.106521606445312,-0.0827789306640625,0.5248621792194325,0.3302788468050109,0.8930234272663845
529605.72871225,1.95977783203125,-1.38909912109375,-0.7691192626953125,0.204446615827639,-1.117049337112177,0.5091287561314624
529605.7880532501,0.4014739990234375,-1.043258666992188,0.5784149169921875,0.5166681651774766,-0.1902937788466309,1.865534223588364
529605.8474512501,-0.55010986328125,-0.9010772705078125,0.313262939453125,-0.006548713120504847,0.5375316354732664,0.8403913746431485
529605.90682225,0.430755615234375,-0.9623260498046875,0.358917236328125,0.1094825524131575,1.174042848652636,0.2844847265966624
529605.9662142501,0.09832763671875,-0.89715576171875,0.3561553955078125,-0.1048230857699548,0.463173248361055,0.8081229169790944
529606.02558325,0.0349884033203125,-0.932464599609375,0.32452392578125,-0.1357988450408845,0.2280118630493141,0.9993671780187746
529606.0849622501,0.115570068359375,-0.93048095703125,0.3737640380859375,-0.1550135523058062,0.4257968477262289,0.7690735185474806
529606.14436725,0.026947021484375,-0.9024658203125,0.3139495849609375,-0.1565256951727532,0.3533940198024627,0.9937106238634463
529606.20373225,-0.0783233642578125,-0.97882080078125,0.34271240234375,-0.1957636454095446,0.4103662260542008,1.17746447802117
529606.2631032501,0.0311431884765625,-1.125503540039062,0.2571258544921875,-0.2344183633676087,0.5889476887427723,1.29592294857233
529606.32248025,0.130035400390625,-1.455841064453125,0.3061981201171875,-0.4327333171014493,0.6241536130891837,2.094867014538357
529606.38187225,0.9016876220703125,-1.826187133789062,0.0215301513671875,-0.9400207636552308,1.602535081718134,3.241403670188219
529606.44125125,-0.4739837646484375,-1.196395874023438,0.5809326171875,-0.7032396437685038,0.5748031075611434,3.769814245244073
529606.50063125,0.104248046875,-0.2644500732421875,0.2920989990234375,-0.2697260204676613,0.6470733100626237,2.098953901547193
529606.5600102501,-0.16143798828125,-0.213775634765625,0.13275146484375,-0.3042070323653532,0.03882089921008505,-2.22616991102697
529606.61938425,-0.239227294921875,-0.466522216796875,0.123077392578125,0.08220326073525783,-0.9766416254888014,-4.61732531474544
529606.67876125,-0.3648529052734375,-0.9815673828125,0.231414794921875,0.3961057973651535,-1.106016659664306,-5.332036258593351
529606.73814525,-0.5196075439453125,-1.302474975585938,0.2813720703125,0.8200762492158061,-0.3770546081911627,-5.537071965654115
529606.7975202501,-0.660614013671875,-1.47369384765625,0.15411376953125,0.9664803343496041,0.02204271802647685,-5.166209739629605
529606.8568982501,-0.8259429931640625,-1.365737915039062,-0.072998046875,1.02614845857283,-0.2714546783312317,-1.77338139302057
529606.9162802501,1.968734741210938,-1.233062744140625,-0.16748046875,0.0666344210026546,-0.866992359191405,1.477340677821836
529606.9756602501,0.096832275390625,-0.9200592041015625,0.4936065673828125,0.6551205839285161,-1.059039829615853,2.437978569372024
529607.0350412501,-0.741943359375,-0.8175506591796875,0.280670166015625,0.1851195231647159,-1.619919398365844,2.530284798018607
529607.0944222501,0.566925048828125,-0.942596435546875,0.44091796875,0.3351268652533912,1.37962903111072,0.1799956012274035
529607.15379425,0.107391357421875,-0.9112396240234375,0.323516845703125,-0.043389818376225,0.405566144505442,0.9239043780025074
529607.21314625,0.0457916259765625,-0.9307098388671875,0.3192596435546875,-0.05961219784033367,0.5816572852586803,0.8867793797745848
529607.2725502501,-0.029754638671875,-0.9470977783203125,0.3561859130859375,-0.1527301579871722,0.4746767726896522,0.8921797378330474
529607.33190925,-0.009063720703125,-0.9329376220703125,0.233489990234375,-0.1485740287899946,0.4443686679040055,0.8296279427814843
529607.3913002501,-0.0062103271484375,-1.03045654296875,0.3912200927734375,-0.191707651069354,0.5798173072615446,0.9954597880674103
529607.45068325,0.1850128173828125,-1.190155029296875,0.267669677734375,-0.3545034927125897,0.6494800087397282,1.373009744221328
529607.5100742501,0.31201171875,-1.671310424804688,0.3739013671875,-0.6901688491383949,0.7252160490838376,2.507201050322018
529607.56945525,0.89776611328125,-1.736251831054688,0.281768798828125,-0.9700830586722633,1.341362069407371,3.495823438606759
529607.62883625,-0.5406646728515625,-0.9133453369140625,0.399200439453125,-0.4041480112249748,-0.5141354989808113,4.73168464774675
529607.6882182501,0.636260986328125,-0.1545257568359375,0.1680908203125,-0.2584475332511757,0.9597973979101593,-0.4072244949162343
529607.74759525,-0.1604156494140625,-0.31817626953125,0.143585205078125,0.2487003636614857,-0.7537305148753161,-3.489852631442801
529607.80697725,-0.2097320556640625,-0.7266387939453125,0.1844329833984375,0.3102763764896438,-0.9548212814133462,-4.83810083648079
529607.86633025,-0.1376800537109375,-1.259857177734375,0.14678955078125,0.8703354253077815,-0.8755874452935267,-6.155100041920007
529607.9257422501,-0.70635986328125,-1.583084106445312,0.1568450927734375,0.9047711634669421,0.6177487106675431,-6.197140702887999
529607.98513025,-1.503433227539062,-1.525070190429688,-0.12237548828125,1.585782466880991,-0.6315201829804519,-3.999010682346254
529608.04451225,2.324188232421875,-2.039093017578125,-0.7494659423828125,0.05640894768118636,-0.4069730925093308,2.56480842049374
529608.1038902501,-0.099578857421875,-0.83953857421875,0.8113555908203125,0.4876546229977174,-1.559285611931356,2.764255217690864
529608.16326625,-0.525115966796875,-0.7809295654296875,0.2050628662109375,0.223638952539404,-2.039989118167858,2.619143298317972
529608.22264225,0.378173828125,-0.928192138671875,0.419219970703125,0.2860954064239423,1.372693893316044,0.2205534141004382
529608.28201325,0.1777801513671875,-0.9642333984375,0.2404022216796875,-0.0535971822022807,0.07180494825904345,1.267603958804864
529608.34138525,-0.059814453125,-0.942169189453125,0.268310546875,-0.01696007508606062,-0.05027009505244471,1.413930279634831
529608.40075725,-0.0970001220703125,-0.9750518798828125,0.306060791015625,-0.107853230458247,0.07919921502564845,1.244047233698677
529608.4601272501,-0.0781097412109375,-1.031204223632812,0.31329345703125,-0.1630568314300635,0.3375716471340839,1.126053751073844
529608.51949825,0.195526123046875,-1.095367431640625,0.2697601318359375,-0.3210557873178485,0.7608704497578185,1.486913676676235
529608.57888525,0.0275115966796875,-1.559677124023438,0.3439178466796875,-0.4817322853655992,0.4014496964085065,2.246527114399536
529608.6382422501,1.140945434570312,-1.691314697265625,0.2684478759765625,-1.29027491653249,2.046995894995856,2.918698320891175
529608.6976242501,-0.2682037353515625,-1.040939331054688,0.4409027099609375,-0.6929481240520016,-0.2411215398313382,3.534729558971726
529608.75699825,0.149322509765625,-0.33038330078125,0.287628173828125,0.100224871831824,1.281005784358469,2.550469961184753
529608.8163692501,-0.14056396484375,-0.1725006103515625,0.0317840576171875,0.1866870597823366,-0.1375112576218054,-1.810425963783572
529608.87574125,-0.2442169189453125,-0.496429443359375,0.086517333984375,0.761120786900286,-1.766616431219551,-4.570986311778061
529608.93512025,-0.1896209716796875,-0.9987335205078125,0.17559814453125,1.032318470186325,-0.7972079512514046,-5.762571935163266
529608.99450325,-0.649383544921875,-1.5595703125,0.2956390380859375,1.184646490848895,-0.7840130533144981,-5.780766651730688
529609.05387525,-0.4512481689453125,-1.77301025390625,0.0199737548828125,1.450319180137456,0.6482807873008656,-4.704962489368895
529609.1132292501,-0.8242340087890625,-1.347137451171875,0.10614013671875,-0.08687178212616674,-1.799749350973445,1.919249117510826
529609.17260125,0.075469970703125,-1.694793701171875,0.479736328125,0.3133480664909412,-1.587391548811616,-0.02391092553116743
529609.2319742501,0.0986328125,-1.085952758789062,0.860748291015625,0.5570704494428508,-0.9014901490039644,1.953341840521585
529609.29135125,0.1586761474609375,-0.9259033203125,0.2119903564453125,0.02290265274246343,1.10339557651945,0.3161347982556001
529609.35072025,0.0278167724609375,-0.8616485595703125,0.4771270751953125,-0.1431747359959679,0.04243054775157845,1.279611086895595
529609.4101062501,0.211456298828125,-0.95965576171875,0.290374755859375,-0.1919750324427979,0.736654325965728,0.8274489443775814
529609.4694852501,-0.0379638671875,-0.9293212890625,0.3115386962890625,-0.2207190627202411,0.3051287524186296,1.162625344427248
529609.5288502501,0.14300537109375,-0.935821533203125,0.3276824951171875,-0.127952639837293,0.3196858572531118,1.036731860744804
529609.58825625,-0.1475982666015625,-1.053573608398438,0.3297119140625,-0.2113207672333515,0.04383722943935831,1.295552236548591
529609.64772525,0.10736083984375,-1.282119750976562,0.1138458251953125,-0.3532566006902146,0.7047464603132706,1.497110920490148
529609.70710825,0.1820526123046875,-1.566741943359375,0.4463348388671875,-0.5418462227553038,0.5164942607582945,2.138639795479336
529609.76649125,1.082962036132812,-1.84716796875,0.1943206787109375,-1.189359220713899,1.542440585404387,3.087394662245591
529609.82587225,-0.3688812255859375,-0.8730621337890625,0.3563385009765625,-0.6477819772286938,-0.3049604406377366,4.147281643404198
529609.88525525,0.63677978515625,-0.17974853515625,0.189727783203125,-0.1712433886209671,0.6166293840613828,-1.105825977330256
529609.9446392501,-0.1779022216796875,-0.267791748046875,0.123687744140625,0.1514992449313376,0.2457573043408391,-2.461672180958241
529610.0040222501,-0.1422119140625,-0.779327392578125,0.1517333984375,0.8801241402104767,-0.7325067188840386,-5.341260383344949
529610.06339725,-0.204559326171875,-1.304901123046875,0.1855316162109375,1.36066599256881,-0.323388982748867,-6.50418293654985
529610.12277925,-0.58941650390625,-1.66650390625,-0.0461883544921875,1.421714699501133,0.225485322123156,-6.530461944922315
529610.18215725,-1.193450927734375,-1.555923461914062,-0.0850982666015625,1.271842113363616,-1.571753200574562,-2.280146327368478
529610.2415332501,2.535690307617188,-1.678817749023438,0.09112548828125,0.1819152077411326,-1.011957538388233,1.706030581684684
529610.30090925,-0.32281494140625,-0.8936309814453125,0.72705078125,0.2902659166910064,0.3053948022115285,3.312781713724523
529610.3602652501,-0.6589508056640625,-0.8135528564453125,0.2307586669921875,-0.05652985519467596,-1.377267339856037,2.49445196555159
529610.4196415417,0.4659423828125,-0.938385009765625,0.440216064453125,0.2145048426326503,1.126611683322216,0.6069589135110871
529610.4790135417,0.2975616455078125,-0.89794921875,0.2845001220703125,-0.1601358763464646,0.4876242629612905,0.9122855387987097
529610.5383815417,-0.0183868408203125,-0.9305572509765625,0.2818603515625,-0.1437094987428559,0.1718524535622682,1.378377611714491
529610.5977515416,-0.0865631103515625,-0.9892730712890625,0.30999755859375,-0.2720680043302769,0.2659573812090901,1.282414330259012
529610.6571225417,0.02154541015625,-1.0673828125,0.2940826416015625,-0.3215484721195132,0.4121603976805872,1.460915365482663
529610.7164925417,0.26995849609375,-1.260025024414062,0.236358642578125,-0.3777188005670284,0.5052008598397044,1.754051104564339
529610.7758535417,0.5838165283203125,-1.9501953125,0.2972869873046875,-1.019951815348433,1.083155552234847,2.989148519103695
529610.8352215417,-0.0311431884765625,-1.576278686523438,0.6539459228515625,-1.336806199730573,1.745298359325685,3.75767076330553
529610.8945895417,-0.51568603515625,-0.1703948974609375,0.2961578369140625,0.2173118144215938,0.7270488365460303,1.935216366142505
529610.9539285417,0.1751556396484375,-0.0447540283203125,-0.035125732421875,-0.2225438606991634,0.7104280481828457,-1.939352787947616
529611.0133245417,-0.0789947509765625,-0.4317169189453125,0.08135986328125,1.113511327604007,-1.035482305561339,-4.309215153486466
529611.0726815417,-0.08367919921875,-1.063323974609375,0.189483642578125,1.559804928343921,-0.795101390829152,-6.555378480081097
529611.1320385417,-0.4366302490234375,-1.970809936523438,0.3365631103515625,1.876640137966213,-0.6817846853946075,-6.731288259564101
529611.1914045417,-1.134567260742188,-1.846176147460938,-0.2523956298828125,1.895412227857963,-0.7010364105986813,-4.18782933626509
529611.2507755416,-0.0435943603515625,-1.249725341796875,0.4525909423828125,-0.03562936695973409,-1.353240300501342,3.426859284282503
529611.3101485417,-0.3574676513671875,-0.890045166015625,-0.17669677734375,-0.8076818975025774,3.838940319762606,-0.3646320269703791
529611.3695135417,-0.771209716796875,-0.58697509765625,0.53387451171875,0.06267909415166892,-1.604716210650909,2.64730889000665
529611.4288845417,0.9588623046875,-0.960052490234375,0.3801727294921875,0.2459940593617472,1.460532669234019,0.2888491149910842
529611.4882685418,0.050262451171875,-0.8599090576171875,0.311279296875,-0.08672903669173848,-0.1376670525455751,1.722907033512517
529611.5476415417,-0.0002288818359375,-0.9504852294921875,0.248626708984375,-0.2288907062090403,0.634649397261295,1.299684929928176
529611.6070115417,-0.137542724609375,-0.9716033935546875,0.331787109375,-0.2533571671435982,0.3881831594382768,1.172352806624872
529611.6663885417,-0.0048828125,-1.066360473632812,0.2718963623046875,-0.3144325056868215,0.5266395729309513,1.068470349351933
529611.7257645417,0.18853759765625,-1.108367919921875,0.258941650390625,-0.4310294266360166,0.6748612655087285,1.333255673365279
529611.7851495417,0.053192138671875,-1.372787475585938,0.3722686767578125,-0.8030282898137728,0.502293753193774,2.611934121247128
529611.8445295417,1.17913818359375,-1.701522827148438,0.08636474609375,-1.114800297571605,1.503906774959813,2.715855460671982
529611.9039075417,-0.35797119140625,-0.959808349609375,0.5595245361328125,-0.4806973809659944,-0.1221323012749249,3.850088312085677
529611.9632785417,0.2918701171875,-0.2570953369140625,0.3301239013671875,0.1041248049321361,1.24113639862722,0.9083595067197148
529612.0226285417,-0.1707305908203125,-0.1842193603515625,0.027435302734375,-0.1144424236273211,1.255582449644246,-2.374874434710379
529612.0820035418,-0.1699066162109375,-0.57318115234375,0.0138702392578125,1.15584387102747,-0.6121792418798604,-4.243516034658647
529612.1413785417,-0.17510986328125,-1.096923828125,0.164459228515625,1.677330759881336,-1.315184793788546,-5.726710873188695
529612.2007475417,-0.5791473388671875,-1.7164306640625,0.3637542724609375,1.221006096579529,-0.570552968777486,-6.264891521019614
529612.2601165416,-0.9310150146484375,-1.763015747070312,-0.3222503662109375,1.344496876326503,0.5587005703460882,-2.713988052115619
529612.3194915417,-0.396759033203125,-1.448394775390625,0.4032440185546875,-0.03742646806331957,-1.283689451788942,1.416869344213843
529612.3788595417,-0.4742889404296875,-1.277877807617188,-0.066436767578125,-0.1384316460945368,0.7488990080256943,4.311766461810762
529612.4382395417,-0.514190673828125,-0.6929931640625,0.753021240234375,-0.2418933239152432,-1.167782289562078,2.451550038287068
529612.4975925417,0.8659820556640625,-0.9585418701171875,0.178619384765625,-0.1669322634483468,1.495133523380764,0.2157932799680306
529612.5569785417,-0.0640869140625,-0.9018707275390625,0.2204132080078125,-0.2731151592708961,-0.1613087324905355,1.628215677793659
529612.6163675417,0.1462249755859375,-0.911102294921875,0.2978057861328125,-0.1785143510291014,0.02431838917794956,1.50469933170022
529612.6757225418,-0.1345367431640625,-0.955596923828125,0.2698974609375,-0.3237642221464591,-0.2892350070330367,1.682898364456256
529612.7350975417,-0.0301361083984375,-0.9981536865234375,0.31414794921875,-0.3391839248580179,0.4785820321121445,1.153195091007277
529612.7944835417,0.0803375244140625,-1.213348388671875,0.260589599609375,-0.5099474118505527,0.677334809529194,1.589007554961076
529612.8538605417,0.1740875244140625,-1.594650268554688,0.4093017578125,-0.7318430591403908,0.885848871289711,2.151530560419755
529612.9132335417,0.882537841796875,-1.72308349609375,0.6776275634765625,-1.464823288066246,2.084161639588457,3.099409779819592
529612.9726085417,-0.2503662109375,-0.8048248291015625,0.25128173828125,-0.9393720176136875,1.068227469060517,3.496719325997462
529613.0319775417,0.4475555419921875,-0.2263946533203125,0.051971435546875,0.1137526649049905,0.9480280901047721,-1.625244655281567
529613.0913535417,-0.0582427978515625,-0.2405548095703125,-0.031463623046875,1.153752224307322,-0.5850352387853368,-2.112016174061814
529613.1507295417,-0.2688751220703125,-0.72625732421875,0.0460662841796875,1.7593124456139,-2.312295741731806,-4.179709890733657
529613.2100855417,-0.1635589599609375,-1.131698608398438,0.16522216796875,1.076014019455691,-1.502124054926113,-5.805937785089681
529613.2694675417,-0.719757080078125,-1.520050048828125,0.078887939453125,1.303969423489896,-1.24585019375666,-5.823581227311456
529613.3288375417,-0.91778564453125,-1.462158203125,-0.117095947265625,1.388540234434234,-0.1236465746707439,-3.213807994972818
529613.3882165417,-0.6870269775390625,-1.50830078125,0.359039306640625,-0.1444264217083052,-1.521445821266856,2.378752529889752
529613.4475845417,-0.11114501953125,-1.592910766601562,0.19097900390625,0.5564494002766442,-2.049730961435368,-0.5676352094871951
529613.5069575417,-0.2121429443359375,-0.9637603759765625,0.907806396484375,0.7387832569411373,-1.171750932218514,2.334802915052392
529613.5663305417,0.326995849609375,-1.00067138671875,0.110443115234375,0.01854412330243975,1.311181796354048,0.2626771656944396
529613.6257005417,-0.0370025634765625,-0.8111419677734375,0.48199462890625,0.1795716259818629,0.04716484922141231,1.081452194401633
529613.6850755417,0.169708251953125,-0.9394378662109375,0.238616943359375,-0.2598840423431644,0.7969554835800652,0.8960354624592641
529613.7444275417,-0.1427764892578125,-0.933685302734375,0.3135528564453125,-0.2831291776018121,0.1723640468076724,1.267453223887165
529613.8037955418,0.11572265625,-0.9871063232421875,0.3141326904296875,-0.3003177519094015,0.5802737730723841,1.010326618536669
529613.8631585417,-0.032379150390625,-1.137130737304688,0.2376556396484375,-0.3574462857171273,0.2238594622776626,1.298827392057171
529613.9225505417,0.1530914306640625,-1.187667846679688,0.337066650390625,-0.6713355065415726,0.5888337054481169,1.983225703745582
529613.9819025417,0.6125640869140625,-1.76312255859375,0.396453857421875,-1.331991204479709,1.507745721671162,2.715711649973118
529614.0412865417,-0.1978912353515625,-1.5701904296875,0.6329803466796875,-1.459013335832129,2.187965533609238,3.065224378802899
529614.1006505417,-0.674835205078125,-0.2763519287109375,0.283172607421875,-0.2041478091533321,0.9201245534673579,3.215167272393194
529614.1600375416,0.17474365234375,-0.054412841796875,-0.1267547607421875,0.251233562490369,0.7014763648107624,-1.949691711931522
529614.2193945417,-0.155853271484375,-0.3668365478515625,0.06439208984375,1.102362802648717,-0.4587318946111298,-2.508882570234294
529614.2787795417,-0.1900787353515625,-0.903839111328125,0.1382904052734375,1.613290257780419,-1.030571436511233,-5.033847970291577
529614.3381475417,-0.332611083984375,-1.442031860351562,0.3101959228515625,1.871064543908023,-1.321814200690081,-5.689240729283498
529614.3975215417,-0.524078369140625,-1.696380615234375,0.12109375,1.856456040064502,1.181497835492095,-5.066666104404622
529614.4568925417,-1.107803344726562,-1.48358154296875,-0.329376220703125,1.375571705189984,-0.2586557924484199,-2.012121001572941
529614.5162635416,1.98541259765625,-2.482391357421875,-1.2203369140625,0.4346289551653677,-2.691834280271685,0.8048099445830359
529614.5756375417,-0.2735595703125,-1.202529907226562,0.966217041015625,1.159190399253264,-2.384873805655299,2.380360013923724
529614.6350085418,-0.3244781494140625,-0.8439178466796875,0.0047454833984375,-0.4092058867672533,-0.7892797206862388,1.938861701042606
529614.6943835417,0.2980499267578125,-0.8893890380859375,0.5679779052734375,0.04764128874042749,0.2633666581006611,0.7315218819129273
529614.7537595417,0.2055511474609375,-0.91534423828125,0.3058624267578125,-0.3568278997120108,1.005355029413709,0.7593876016628623
529614.8131355417,0.071563720703125,-0.9160003662109375,0.284759521484375,-0.3015539912874163,0.3199367270277972,1.12724951040329
529614.8724845417,-0.13177490234375,-0.9505157470703125,0.3280029296875,-0.3423269875765294,0.04958885844560244,1.422269702272305
529614.9318725417,-0.0765838623046875,-1.018768310546875,0.2926483154296875,-0.4363046161232456,0.2092419036864357,1.301083622132686
529614.9912505416,0.10980224609375,-1.228897094726562,0.1825714111328125,-0.5038881877384044,0.3498147312973962,1.437002309422624
529615.0506315416,0.2002105712890625,-1.7470703125,0.5406646728515625,-0.9258868351179623,0.6208068185472811,2.39312561029291
529615.1100095417,0.947296142578125,-1.6680908203125,0.5203399658203125,-1.508201921165892,1.921584709786826,3.203509551037481
529615.1693805417,-0.584503173828125,-0.7732086181640625,0.307830810546875,-1.463666410888715,1.465600931104549,3.682886536735015
529615.2287465417,0.2824249267578125,-0.0855865478515625,0.025665283203125,0.3508890504811342,0.4063754791607171,-1.642607932956665
529615.2881295417,-0.08953857421875,-0.205810546875,-0.0174560546875,1.263133576599057,-0.6915427739447668,-2.468932490722015
529615.3475015417,-0.2561798095703125,-0.7233123779296875,0.092864990234375,1.785990395517659,-1.433133002674848,-4.84066173218501
529615.4068947501,-0.27117919921875,-1.228057861328125,0.1729278564453125,1.650874917612489,-1.265221494893679,-5.611091332359559
529615.46625075,-0.70233154296875,-1.623886108398438,0.23028564453125,1.574621691384686,-0.0367958315171888,-5.975360636789469
529615.52564475,-0.9121856689453125,-1.665985107421875,-0.4696502685546875,1.363885754326716,0.2034173040663234,-2.148329973421698
529615.58502875,1.617630004882812,-0.3892974853515625,1.56903076171875,0.7555617044408546,-2.344458738216693,0.9098492790335051
529615.6444197501,-0.4852752685546875,-0.709228515625,0.3619384765625,-0.1450666456343602,-0.3677599096706771,3.334927496085185
529615.7037817501,-0.8839874267578125,-0.7753448486328125,0.3773956298828125,-0.3999050629762606,-1.354617421101022,1.686089364074389
529615.7631827501,0.8143157958984375,-0.961822509765625,0.4746246337890625,0.08262297492305432,0.6894873462154436,0.6309060580330796
529615.8225597501,0.11077880859375,-0.877349853515625,0.3145751953125,-0.3415376266294299,0.2111473954463874,1.308568170060245
529615.88193875,0.03802490234375,-0.9480438232421875,0.321044921875,-0.3360840053491657,0.2203193222406203,1.144320905622916
529615.94131375,-0.0704345703125,-0.9707183837890625,0.333648681640625,-0.3874707638466806,0.3878401442898746,1.087021929505425
529616.0006887501,0.01837158203125,-1.008056640625,0.29107666015625,-0.3994038560591077,0.5633872012324097,0.9891486289161405
529616.0600697501,0.062713623046875,-1.103652954101562,0.2912139892578125,-0.5204828771229062,0.4304073122053741,1.292208904116106
529616.11944675,0.0258636474609375,-1.275558471679688,0.3828582763671875,-0.9230377853837956,0.3084768785410772,2.397638603076158
529616.17882275,0.7979278564453125,-1.8570556640625,0.3040924072265625,-1.335119886128334,1.038383020620653,2.620693790704617
529616.23819475,-0.2598419189453125,-1.481674194335938,0.6483154296875,-1.422052388327355,1.244125264318616,3.641647487255137
529616.29756775,-0.346649169921875,-0.205657958984375,0.3113250732421875,-0.03613749809572121,1.417721555762668,1.857128754555856
529616.35691875,-0.08819580078125,-0.1118927001953125,-0.048431396484375,-0.247836966836082,0.1176573916952647,-1.453169827768277
529616.41632275,-0.1330413818359375,-0.446533203125,0.04608154296875,1.040750038197516,-1.002610109278164,-3.369487870183362
529616.4757067501,-0.1689605712890625,-0.8493499755859375,0.1660003662109375,1.383607527463189,-1.2480273279478,-5.437664151644727
529616.53506975,-0.415496826171875,-1.59063720703125,0.3186798095703125,1.821849326963358,-1.182545523064932,-6.060667545459106
529616.59444875,-0.630218505859375,-1.77313232421875,0.1083984375,1.533606347436376,0.5349736692462453,-6.091475525581361
529616.65385475,-1.062347412109375,-1.435165405273438,-0.0259246826171875,0.1023894891658404,-0.4440898349378742,-0.08458838780753279
529616.7132297501,0.4908905029296875,-1.760650634765625,-0.3827056884765625,-0.692625348927884,1.827578585416446,2.453468046904143
529616.77261675,-0.1290740966796875,-0.9496002197265625,0.777191162109375,0.3587757357332948,-1.759533487984376,3.147996490746998
529616.83200275,0.19354248046875,-1.02105712890625,0.1300201416015625,-0.2046410265872148,1.188078772861789,0.4451340604012943
529616.89139775,-0.004638671875,-0.868743896484375,0.479095458984375,-0.2217044323235705,0.1080287327740832,1.342804703769867
529616.9507897501,0.255462646484375,-0.93701171875,0.29449462890625,-0.250055380024118,0.1905763402382883,1.296047051879128
529617.01017775,-0.120330810546875,-0.91851806640625,0.2968597412109375,-0.3484346812205171,-0.3421480231512761,1.576880584621292
529617.06956075,0.0047149658203125,-0.97369384765625,0.2277374267578125,-0.3263618694737224,0.2442116056441571,1.085437348656827
529617.12893975,-0.056365966796875,-1.044204711914062,0.3720703125,-0.3414886244653725,0.4621692366300951,1.340973514204329
529617.18831575,0.12518310546875,-1.210494995117188,0.3935394287109375,-0.518327314536596,0.4792318434181238,1.651945508370701
529617.24769575,0.459747314453125,-1.734603881835938,0.445404052734375,-1.113453803324461,1.072011022021193,2.533022527619208
529617.3070737501,0.27325439453125,-1.750335693359375,0.36663818359375,-1.332798142290003,1.633907119359267,3.292037286729459
529617.3664527501,-0.5587615966796875,-0.5743408203125,0.297943115234375,-0.9921729146500345,0.2332023640138786,3.607167540621881
529617.42583175,0.2862701416015625,-0.0699310302734375,-0.031524658203125,0.130439499663209,0.9208417427489162,-1.204972268920598
529617.48521175,-0.11224365234375,-0.29656982421875,0.0239105224609375,1.392476386525371,-1.167938617118065,-3.44424439987854
529617.54459175,-0.2446441650390625,-0.7982940673828125,0.1715545654296875,1.747744206470813,-1.036184581140793,-5.629561419783695
529617.60397475,-0.1677703857421875,-1.291915893554688,0.0602264404296875,1.757624534115007,-0.5433961825097299,-6.012322116926462
529617.66335775,-0.4644622802734375,-1.698501586914062,-0.11358642578125,1.747465107188573,0.3034573525184959,-5.763721888121963
529617.7227407501,-1.134979248046875,-1.445693969726562,-0.12591552734375,0.2003096613903099,-1.658462796190343,-0.2928523787416913
529617.7821227501,1.643478393554688,-0.5496826171875,1.067123413085938,-0.4044473505314997,-1.261386542923965,2.990786363174094
529617.84150875,0.056488037109375,-0.8050994873046875,0.09478759765625,0.0929134293751205,-0.7992386115825901,2.673611334196709
529617.9008877501,-0.809295654296875,-0.813690185546875,0.455047607421875,-0.4097976411614689,-0.2215827258617538,1.856919430094176
529617.96027275,0.8720245361328125,-0.9239959716796875,0.4152984619140625,0.0335995055768757,0.238257310078958,0.8927432627197082
529618.01962575,-0.0458984375,-0.902191162109375,0.29541015625,-0.386613225975675,0.1292674424674652,1.284934745914663
529618.0790137501,0.0442657470703125,-0.952423095703125,0.2631988525390625,-0.3641840832750277,0.3695426297043762,1.189561088324528
529618.13840175,-0.058441162109375,-0.96307373046875,0.3496551513671875,-0.369672325649463,0.3231511624635229,1.106930123918203
529618.1977737501,0.1403656005859375,-0.934906005859375,0.364654541015625,-0.4435574690359674,0.6785702499588818,0.902585240844205
529618.2571727501,0.0517578125,-1.2303466796875,0.0849761962890625,-0.6278396943539624,0.4940419485561635,1.485450535973345
529618.3165677501,0.1153564453125,-1.35150146484375,0.372802734375,-1.095259619389258,0.4121071344587856,2.768414010049132
529618.37603375,1.2061767578125,-1.885147094726562,0.3857421875,-1.623572190116997,1.328524834004862,2.896623911247727
529618.43541175,-0.364410400390625,-1.132431030273438,0.645050048828125,-1.193231456938875,-0.2704458729103097,4.990838983951233
529618.49479575,-0.147186279296875,-0.309356689453125,0.346405029296875,-0.3125880003158326,0.7115772021932149,3.142804391885779
529618.55417775,-0.13592529296875,-0.0348663330078125,-0.0172271728515625,-0.1900335880081302,0.3697077456919611,-1.890810818126524
529618.61355575,-0.2437744140625,-0.3826751708984375,0.140960693359375,0.9920008744436154,-1.744906608329334,-4.074408501231924
529618.6729327501,-0.23638916015625,-0.822540283203125,0.280364990234375,1.290458142015487,-1.570804316278167,-5.202846314113606
529618.73230775,-0.44000244140625,-1.718856811523438,0.3634033203125,2.002006315752821,-0.6762525008621858,-6.177022651381321
529618.79167575,-0.3961334228515625,-2.0361328125,-0.11248779296875,1.969931203583906,0.8133791980225838,-5.329026886561561
529618.85106675,-1.106201171875,-1.82513427734375,0.78924560546875,-0.2699225617561091,-2.688963925248798,2.227425857797051
529618.9104387501,-0.4288330078125,-0.5373687744140625,0.093780517578125,-0.08725580995535616,-0.2955072840323913,3.355475381791801
529618.96983375,-0.2769775390625,-0.778289794921875,0.6917266845703125,0.6256638917433677,-2.847528270236007,2.627174326901216
529619.02921175,0.5974884033203125,-0.9709014892578125,0.280609130859375,0.008276039403530241,2.252490997344659,-0.4725246722127592
529619.08857775,-0.106658935546875,-0.8409271240234375,0.3181610107421875,-0.1381594710311307,0.4163157279294378,1.027133828176159
529619.1479517501,0.3594512939453125,-0.894805908203125,0.4134368896484375,-0.2439578063922726,0.5779054239149767,1.123364491005082
529619.20732475,-0.0857696533203125,-0.95843505859375,0.2489166259765625,-0.4211863832470837,-0.1905262728097948,1.516549333286637
529619.26670175,-0.08831787109375,-0.986358642578125,0.248565673828125,-0.38294765105129,0.237923615994371,1.31891242036633
529619.32607475,-0.0267791748046875,-1.089157104492188,0.4558563232421875,-0.4523469658976649,0.2082464140709641,1.424731528383975
529619.3854417501,0.2231292724609375,-1.349533081054688,0.4222412109375,-0.8491760778148839,0.6047996224992509,2.16843311122627
529619.4448267501,0.868865966796875,-1.900131225585938,0.499114990234375,-1.647284443830844,1.774354245766776,3.207200692308331
529619.50420875,-0.0438385009765625,-1.458099365234375,0.5904083251953125,-1.61660536070535,1.980320727628523,3.322191727120209
529619.5635587501,-0.76104736328125,-0.25286865234375,0.2396240234375,-0.3717000565034493,1.699981477584678,2.552022584100269
529619.62294475,-0.0950927734375,0.013427734375,-0.0891876220703125,0.5124007158467336,-0.8408973752502635,-1.581872413768536
529619.68232175,-0.1688232421875,-0.2266387939453125,0.0465087890625,1.182009961369717,-1.452537859641601,-2.528792362543726
529619.7416707501,-0.19537353515625,-0.790435791015625,0.1611785888671875,1.568326511199957,-0.9003548434312637,-5.466995142626424
529619.80105375,-0.1820220947265625,-1.553115844726562,0.1615447998046875,2.021934217557666,-0.9905348042635268,-6.268411154716262
529619.86042875,-0.485137939453125,-1.91094970703125,0.291015625,2.125939180240748,-0.5992221642282979,-6.316381610167424
529619.91980575,-1.576248168945312,-1.597412109375,-0.1594696044921875,1.024191035171621,0.01868447189188693,-1.642279831510367
529619.97920375,0.8834381103515625,-2.178436279296875,-0.5590972900390625,-0.6569853293237896,3.181778689174653,-0.9851267230379029
529620.03857875,-0.5458984375,-1.236495971679688,0.813751220703125,0.04033517260590411,-2.266567135286273,3.010610934328644
529620.09793575,0.343719482421875,-0.97149658203125,0.23529052734375,-0.317577698934205,0.7260908975019287,0.6697535888540654
529620.15730975,-0.162994384765625,-0.8997344970703125,0.3137359619140625,-0.3232124151685947,0.06990265229239985,1.68639775812862
529620.21669775,0.1226806640625,-0.914520263671875,0.38720703125,-0.3629632902313354,0.4046337718078052,1.193438118239465
529620.2760837501,-0.0176544189453125,-0.951507568359375,0.270965576171875,-0.4201323040876304,0.2469346878587632,1.243116725213803
529620.33544175,-0.042327880859375,-0.9403228759765625,0.305511474609375,-0.4552045377473199,0.4748765097714082,1.05405306047468
529620.3948199167,-0.0029754638671875,-1.052230834960938,0.2181549072265625,-0.6341306134809476,0.4969402667704967,1.328728299512144
529620.4542149167,0.0782928466796875,-1.097503662109375,0.33355712890625,-0.7336087349431134,0.4307489957732313,1.622534622556302
529620.5135919166,0.343231201171875,-1.742904663085938,0.4903106689453125,-1.281710723099013,0.8096869914872979,2.365293979004928
529620.5729679167,0.429840087890625,-1.908248901367188,0.3768310546875,-1.938054763232312,1.259437641638245,3.028344924027482
529620.6323389167,-0.5921630859375,-0.8218841552734375,0.3767547607421875,-1.555476758940325,-0.6305763586901278,4.384947998037267
529620.6917139167,0.1163177490234375,-0.187408447265625,0.06427001953125,-0.5094392807145656,0.1887544717365651,0.5125093728192089
529620.7510869167,-0.2346343994140625,-0.07452392578125,0.095703125,0.7720828905792702,-0.7242317447449443,-2.366474824632269
529620.8104659166,-0.1519927978515625,-0.4423065185546875,0.0906219482421875,1.54032976392439,-0.6830201258242952,-5.044111793132742
529620.8698409167,-0.017913818359375,-0.9030914306640625,0.1046600341796875,1.901705810146038,-0.9011319538373488,-5.684274466482719
529620.9292129166,-0.6835479736328125,-1.81268310546875,0.2786865234375,2.350146451356775,-0.4811077740899756,-6.461476485309339
529620.9885819167,-1.02203369140625,-1.858856201171875,-0.6381988525390625,1.728571577151115,-0.1620072796444633,-2.259245306501318
529621.0479589168,2.30926513671875,-0.491668701171875,1.567901611328125,-0.3709575671915353,-1.57798419857702,1.424223929880206
529621.1073279167,-0.18115234375,-0.643890380859375,0.2081756591796875,-0.1871419276965221,-0.5184687283904792,3.095677093235737
529621.1666959167,-0.9765472412109375,-0.744049072265625,0.3488922119140625,-0.5196114908142322,-0.9663048320337679,1.825645929413375
529621.2260729166,0.91864013671875,-0.974395751953125,0.47723388671875,0.005481850787819104,0.3064062707935407,0.2929423935865361
529621.2854499167,0.0268096923828125,-0.83880615234375,0.343048095703125,-0.3472027029002465,-0.071420387797636,1.554708170649728
529621.3448209167,0.027862548828125,-0.9446868896484375,0.349334716796875,-0.3275794667241066,0.2296965787548983,1.247613739030511
529621.4041949167,-0.0956573486328125,-0.9692535400390625,0.3125,-0.423851142233817,0.1334794980475345,1.267816479059852
529621.4635729167,0.027618408203125,-1.024154663085938,0.2992095947265625,-0.4603673418365475,0.5007331407949875,0.9716910753384531
529621.5229369167,0.0995025634765625,-1.218353271484375,0.19940185546875,-0.5964841683115875,0.5933240613620995,1.428943051331826
529621.5823109167,-0.0035552978515625,-1.498550415039062,0.444305419921875,-1.187064108486469,0.5767205835460004,2.607735914104727
529621.6416739167,1.1220703125,-1.836654663085938,0.4045562744140625,-1.618131884642183,1.563446002186278,2.669129766714324
529621.7010399167,-0.226837158203125,-1.058700561523438,0.518402099609375,-1.73162782081809,0.6991844483766402,4.518355324419261
529621.7604379167,-0.050750732421875,-0.346893310546875,0.3755340576171875,-0.01338078658099412,0.8931874779895334,0.686172509606622
529621.8198209167,-0.2198028564453125,-0.0348358154296875,-0.00042724609375,0.3154066900135724,0.1010565770402558,-1.57849978656406
529621.8791889166,-0.08837890625,-0.37579345703125,-0.00787353515625,1.666787305125713,-0.8266763613453495,-3.811353166662693
529621.9385619167,-0.0102996826171875,-0.8240509033203125,0.0930633544921875,2.03848523110029,-0.800144086353217,-5.752476424102994
529621.9979299167,-0.4489288330078125,-1.813980102539062,0.378631591796875,2.241631691683752,-1.11875056441652,-6.032395959959042
529622.0573049167,-0.788116455078125,-1.856948852539062,-0.1338043212890625,1.883501506198693,0.2936558544425683,-5.379826151722605
529622.1166599167,-0.28582763671875,-1.571807861328125,0.43194580078125,-0.3685777664414405,-1.010985484590354,1.749464608535005
529622.1760189167,0.104583740234375,-1.433441162109375,0.363189697265625,0.2951458930724676,-1.152284023598361,3.801059516417319
529622.2353879167,-0.6673583984375,-0.816864013671875,0.68841552734375,0.9913036588702326,-2.700381163158077,3.056345399728575
529622.2947619167,0.742523193359375,-0.9458465576171875,0.22125244140625,-0.1146533459856553,2.157043570192328,-0.3734662649383899
529622.3541339167,-0.132049560546875,-0.8292694091796875,0.446044921875,-0.4007839061359867,0.07317328042712616,1.426245801779794
529622.4135079167,0.3477020263671875,-0.909820556640625,0.2905120849609375,-0.4386876126666485,0.8042669260367687,0.8201923630393335
529622.4728789167,-0.1779937744140625,-0.9662322998046875,0.3087310791015625,-0.432590039034803,-0.3480458597013655,1.60248794376684
529622.5322559167,0.07958984375,-0.9803466796875,0.33544921875,-0.4710130619780303,0.5053220336693031,1.006810180633328
529622.5916249166,-0.0960540771484375,-1.058639526367188,0.4141082763671875,-0.5055489349941779,0.2089465591215459,1.365008543042294
529622.6509939167,0.0470123291015625,-1.259048461914062,0.3901214599609375,-0.7987949289449829,0.6365466332218674,1.806766247813586
529622.7103679167,0.6297607421875,-1.676055908203125,0.3921051025390625,-1.509037621115959,1.406943742831117,2.426816195979066
529622.7697229167,0.0315093994140625,-1.710250854492188,0.4565277099609375,-1.844441987754937,1.704774901230712,2.958455587540532
529622.8291119167,-0.6628570556640625,-0.4839324951171875,0.1840667724609375,-0.8847793457959352,0.3818323191867648,3.145109091493134
529622.8884819167,0.1675567626953125,-0.047119140625,-0.1197052001953125,-0.08817619842808755,0.3767922868237898,-1.167095194000837
529622.9478539167,-0.1610870361328125,-0.172607421875,0.0275726318359375,1.340947947857864,-1.454701944343399,-3.08616002076423
529623.0072329167,-0.1696319580078125,-0.710906982421875,0.1434783935546875,1.645960852769075,-1.483844916152137,-4.248593084960774
529623.0666079167,-0.068115234375,-1.240814208984375,0.1620330810546875,1.644815693500341,-1.201043041048295,-5.685349318298675
529623.1259789167,-0.5364532470703125,-1.813568115234375,0.38201904296875,1.741191232292564,-0.1793617688879646,-6.062179688326053
529623.1853659167,-0.98333740234375,-1.77789306640625,-0.6339111328125,0.9096447482617871,0.352531421925386,-1.654543688330182
529623.2447429167,1.215408325195312,-0.3824005126953125,1.06915283203125,-0.5998908839780168,-2.109141824297291,2.932896165294606
529623.3041229167,-0.3063812255859375,-0.785430908203125,-0.07781982421875,-0.001785915827007137,-0.6945827723290923,3.431333394913836
529623.3635009167,-0.6505584716796875,-0.663604736328125,0.4849700927734375,0.708725755614067,-2.57778227606017,2.885382708286502
529623.4228779167,0.5959930419921875,-0.96820068359375,0.289764404296875,-0.09431691526959225,1.774005904296194,0.1775758530609575
529623.4822529167,0.1424560546875,-0.870269775390625,0.45928955078125,-0.09564476738910577,-0.2968812088387632,1.129887105146904
529623.5416299168,0.0602569580078125,-0.9587554931640625,0.30865478515625,-0.2803094226396362,0.3196027666271013,1.217864631757672
529623.6010029167,-0.0907440185546875,-0.94781494140625,0.3513641357421875,-0.29058709391847,0.1713240824019965,1.267461213370435
529623.6603769168,0.0049896240234375,-0.9863739013671875,0.3040924072265625,-0.4364590794664702,0.6228595831155143,1.095065208629682
529623.7197569167,0.080841064453125,-1.11602783203125,0.39996337890625,-0.6106069115722776,0.5547305961091071,1.627619662341699
529623.7791339167,0.074066162109375,-1.594375610351562,0.4304046630859375,-0.9370444148209583,0.726907422692147,2.251251029541118
529623.8385109167,1.091659545898438,-2.055633544921875,0.6038360595703125,-1.56579970395769,2.134162222738586,3.193676095028473
529623.8978829167,-0.48211669921875,-0.9492034912109375,0.3046417236328125,-1.187084881142972,0.7409942132781211,4.019307165645966
529623.9572269167,0.3280792236328125,-0.1674957275390625,0.0623779296875,0.1295286985704019,0.9021040076352277,-1.647114534153297
529624.0166269167,-0.122222900390625,-0.1461334228515625,-0.0189361572265625,1.292446990717559,-0.5742971069540284,-2.537364012828256
529624.0759999166,-0.035247802734375,-0.603118896484375,0.0268707275390625,2.41128037944398,-1.127496918068558,-4.787248840730163
529624.1353689167,-0.0063323974609375,-1.172958374023438,-0.0130157470703125,2.345598837479355,-0.7611628648455092,-6.292108494728006
529624.1947349167,-0.4648895263671875,-2.140655517578125,-0.050689697265625,2.242383768375591,-0.7722874213509882,-6.506279909592179
529624.2540909167,-1.441329956054688,-1.883453369140625,-0.116546630859375,1.32550534196093,-2.475422880614647,-0.7491120609129006
529624.3134699167,1.579208374023438,-2.422744750976562,-1.454452514648438,-1.707130467214887,4.463383951094499,-1.556156397650513
529624.3728559167,-0.154327392578125,-1.026351928710938,0.5525970458984375,0.05339318406278063,-1.558299177063591,2.484775636046896
529624.4322269167,0.0949554443359375,-0.993682861328125,0.2578582763671875,-0.1404252884865701,0.8089908411783513,0.6124290463901099
529624.4915789167,0.154754638671875,-0.8215484619140625,0.4713897705078125,-0.2345094434768895,0.3776338457282549,1.673451066805309
529624.5509689167,0.2397918701171875,-0.9640350341796875,0.3128204345703125,-0.3762007987456832,0.299258612743877,1.166881075849195
529624.6103489167,0.0433807373046875,-0.9203338623046875,0.326904296875,-0.4405939033749272,0.2017624157649481,1.29476873455589
529624.6697109167,-0.10723876953125,-0.977996826171875,0.2821197509765625,-0.4450158160488947,0.3854409024638222,1.157370927596522
529624.7290929167,0.0542449951171875,-1.15521240234375,0.302734375,-0.4559608754969024,0.5428411797385574,1.050105190474746
529624.7884659166,0.2128753662109375,-1.2508544921875,0.3778228759765625,-0.8008093439935189,0.6769499827516776,1.931029876908901
529624.8478109167,0.8181610107421875,-1.8404541015625,0.4741973876953125,-1.634251466088215,1.301606666970777,2.730635472089704
529624.9071709167,-0.08587646484375,-1.4796142578125,0.7546844482421875,-1.558583602668011,0.3845918867083049,4.808634024283499
529624.9665329166,-0.9802703857421875,-0.0984649658203125,-0.021759033203125,-0.4884301355071485,0.6518864411007239,2.938727955449661
529625.0259059167,0.1406402587890625,0.0083160400390625,-0.1910247802734375,0.1303846385447534,0.5289368156872537,-2.404049897084415
529625.0852799166,-0.055419921875,-0.33062744140625,0.02142333984375,1.592133573448612,-1.566192253902368,-3.84266768002428
529625.1446609166,-0.2046356201171875,-0.8635711669921875,0.2934112548828125,1.944462328815042,-1.724869516919796,-4.979133858328116
529625.2040389167,-0.413848876953125,-1.631072998046875,0.385528564453125,1.940035089818895,-0.9757329549248664,-6.304853318440689
529625.2634099167,-0.4568634033203125,-1.959976196289062,-0.158935546875,2.324883705256283,0.703646841099177,-4.998287312887967
529625.3227839167,-1.026336669921875,-1.690582275390625,0.2510833740234375,-0.3440628359750431,-2.509893506184088,2.997127349729573
529625.3821664167,0.29498291015625,-1.814300537109375,0.1221771240234375,-0.620900029185434,0.924801863289864,-1.860895529601664
529625.4415714167,-0.338226318359375,-0.83392333984375,0.7652587890625,0.1955383419813239,-3.043554503329033,2.904138286579494
529625.5009404167,0.30841064453125,-0.9852447509765625,0.227203369140625,0.02439135979181773,2.2728415428145,-0.5697385741161397
529625.5603094167,0.058685302734375,-0.84368896484375,0.4219970703125,-0.1813506175900358,0.5069220608522227,0.9248535286150116
529625.6197864166,0.3014678955078125,-0.9075164794921875,0.358856201171875,-0.2933466614400101,0.7064580739458646,0.984422050613468
529625.6791664168,-0.150543212890625,-0.9866180419921875,0.300079345703125,-0.3373495394991713,-0.02460414636291506,1.444408560414134
529625.7385484166,0.0548858642578125,-1.018875122070312,0.284820556640625,-0.476044838541626,0.3560957967283481,1.192854885960738
529625.7979084167,-0.0036468505859375,-1.128082275390625,0.3876495361328125,-0.5385321850948092,0.2304137680364566,1.500125618844118
529625.8572864167,0.0366058349609375,-1.298019409179688,0.426971435546875,-0.9917952784074613,0.4085534123001839,2.39756829562338
529625.9166644167,0.8845672607421875,-1.886749267578125,0.3911590576171875,-1.447230445905182,1.191781632041436,2.507029542747817
529625.9760404167,-0.0886383056640625,-1.373184204101562,0.70648193359375,-1.753162674024689,1.256208558816523,3.694654512959857
529626.0354334167,-0.713043212890625,-0.1668243408203125,0.2175445556640625,0.01351554253215213,1.854785439112695,2.28401962885789
529626.0948084167,0.0175628662109375,-0.078155517578125,-0.1397247314453125,0.03309084180867056,0.5683779651152182,-1.329037226198593
529626.1541864167,-0.1342926025390625,-0.365966796875,-0.0007171630859375,1.445476488011256,-1.182299446980208,-3.124291161251985
529626.2135704167,-0.174957275390625,-0.863983154296875,0.1427001953125,1.888327154093916,-1.220383449516669,-5.261859833340891
529626.2729544167,-0.2768707275390625,-1.458602905273438,0.189605712890625,1.877025763692056,-0.9504385172074028,-5.742366531972835
529626.3323364167,-0.458465576171875,-1.886947631835938,0.1650543212890625,1.781884866381193,-0.1182403576578831,-5.983958386052682
529626.3917154167,-1.178619384765625,-1.636138916015625,-0.1787872314453125,0.6287291901580488,-0.4565917783591422,-0.8473890967234408
529626.4510944167,2.497940063476562,-2.119979858398438,-1.029678344726562,-0.6595217239459811,-1.89480635870997,2.758893741784317
529626.5104774167,-0.276092529296875,-0.9639129638671875,0.9994049072265625,0.08143893350240509,-1.148940424849767,3.25944552130907
529626.5698534166,-0.2634429931640625,-0.853485107421875,0.1764373779296875,-0.379520162728358,-0.1484275549300402,1.606705858301307
529626.6292414167,0.2780914306640625,-0.8623504638671875,0.51739501953125,0.09467803991340699,-0.1051392029913473,1.252570947083584
529626.6886294167,0.2764129638671875,-0.942657470703125,0.3188629150390625,-0.2702400105580466,0.4314081281430259,1.249678754139758
529626.7479844167,-0.0359649658203125,-0.9338531494140625,0.3148040771484375,-0.3936189375392375,-0.2103649587181221,1.565812487130922
529626.8073714167,-0.0921783447265625,-0.93572998046875,0.274383544921875,-0.3933339793025991,0.5036072242434011,1.080412496312066
529626.8667674167,-0.0734405517578125,-1.002273559570312,0.3309783935546875,-0.3847309037172071,0.5169912066177033,1.03443515062072
529626.9261574167,0.130462646484375,-1.17376708984375,0.25372314453125,-0.5703404485224975,0.7330750374606615,1.503092380298466
529626.9855404167,0.097412109375,-1.549819946289062,0.3483428955078125,-1.123601512342099,0.9501136115544131,2.562076017215319
529627.0449254167,1.219070434570312,-1.889678955078125,0.436676025390625,-1.567425830119292,1.935376954756237,2.573382733939359
529627.1043124167,-0.1529693603515625,-0.7642822265625,0.403472900390625,-1.764199878846413,1.013476605474015,4.36351487758431
529627.1636984167,-0.305938720703125,0.007659912109375,0.2518463134765625,-0.3414097948971061,1.154531731558388,1.057266963278187
529627.2230824167,-0.0343170166015625,0.087554931640625,-0.0799560546875,0.6331223406922436,-0.9309079590371977,-3.085873997263155
529627.2824894167,-0.11456298828125,-0.2451934814453125,0.0957183837890625,1.488748062035081,-0.8805920576140036,-3.84175261787373
529627.3418834168,-0.16796875,-1.234359741210938,0.0622100830078125,2.366441801434752,-0.6458674307210358,-6.464980672671666
529627.4012754167,-0.607391357421875,-2.039230346679688,0.0230560302734375,1.834394413594286,0.4321785806463858,-5.958029317047452
529627.4606614168,-1.011871337890625,-1.9002685546875,-0.3046112060546875,1.929226916850917,-0.0006114617862821931,-3.780905778552035
529627.5200544167,0.38714599609375,-1.479263305664062,1.046676635742188,-0.7357648301616415,-1.515896326187349,3.174642482717676
529627.5794364167,-0.88726806640625,-0.84033203125,0.1381072998046875,-0.06673455585964158,-0.9987035182751268,4.837382848250905
529627.6388244167,-0.6791534423828125,-0.705413818359375,0.591156005859375,-0.3462695312542827,1.032096628867522,1.148151063902668
529627.6982114167,0.659820556640625,-1.116058349609375,0.3434295654296875,-0.02150023211242771,1.589152697240486,-0.1603728976834816
529627.7575874167,-0.1127777099609375,-0.9352264404296875,0.434844970703125,-0.06809702907332613,-0.3278372607176263,1.122780193461919
529627.8169684167,0.0084686279296875,-1.062789916992188,0.2265625,-0.1706079583848742,0.7490774398187297,0.7974766642053936
529627.8763414167,-0.09149169921875,-1.055801391601562,0.2461090087890625,-0.2838636774304559,0.2388003286252251,1.210227218383543
529627.9357364167,0.190032958984375,-1.17706298828125,0.299468994140625,-0.4202153947136408,0.7120296732624193,1.334982467016086
529627.9951134167,0.102935791015625,-1.300704956054688,0.4392242431640625,-0.9227272608006923,0.6053559568509684,2.32827763774948
529628.0544734166,1.000732421875,-1.616302490234375,0.1159515380859375,-1.356361791615024,1.479386784487344,2.258741969055293
529628.1138604167,-0.17877197265625,-1.23248291015625,0.49871826171875,-1.08907682460253,0.05635142340164065,4.126034944227546
529628.1732324167,-0.13836669921875,-0.5287933349609375,0.3368377685546875,0.5256057337957826,1.948896492030024,1.193870615600494
529628.2326304168,-0.04632568359375,-0.16925048828125,-0.1969451904296875,0.6070510588848038,1.228228323139715,-1.853010442246158
529628.2920214167,-0.0485076904296875,-0.5188446044921875,-0.0479888916015625,2.269073436188147,-0.1526526599994509,-3.433717989353893
529628.3514164167,-0.08056640625,-0.9842071533203125,0.004547119140625,2.526621886255312,-1.131682874669945,-5.469324875948026
529628.4107934167,-0.5108795166015625,-1.502670288085938,0.085052490234375,2.280750332303708,-1.407174638897627,-5.954582653964671
529628.4701524167,-0.6530303955078125,-1.781448364257812,-0.0795440673828125,2.134671685455118,-0.6462706333100737,-5.13270930364528
529628.5295494167,-0.96331787109375,-1.399520874023438,-0.1451416015625,0.3298484799728541,-1.180915135845585,0.4171586184144479
529628.5889354167,0.195159912109375,-2.327117919921875,-0.323883056640625,-1.105268311397994,4.143330843927066,1.173162407596256
529628.6483204167,-0.0468292236328125,-0.965972900390625,0.722991943359375,0.3590313991979424,-1.074850484375435,2.472123490340148
529628.7077044167,0.20721435546875,-0.9872589111328125,0.199615478515625,-0.2073888761999585,0.6183511177061191,0.7797155102634372
529628.7670864167,0.0176544189453125,-0.80718994140625,0.6658477783203125,-0.05180327689200333,0.2378522432771569,1.303079395053591
529628.8264534167,0.25970458984375,-1.0106201171875,0.3108062744140625,-0.4657565146184319,0.7044873347392059,0.8212805306607399
529628.8858284167,-0.0415191650390625,-0.96417236328125,0.3631134033203125,-0.4073688382473166,0.4543059871955272,1.026588945417129
529628.9452064167,0.1400604248046875,-1.110031127929688,0.2009429931640625,-0.5083367320232728,1.174974955034163,0.7862248085998089
529629.0046014166,0.1156768798828125,-0.99658203125,0.3464813232421875,-0.5503736645657376,0.8599749297190462,1.077473431733055
529629.0639794167,0.147003173828125,-1.082778930664062,0.3034820556640625,-0.7771492882370369,0.4839134142983741,1.855359882959825
529629.1233594167,0.632354736328125,-1.59857177734375,0.3213653564453125,-1.36258027276036,0.8159310389790978,2.322551308773592
529629.1827364167,-0.1018524169921875,-1.526168823242188,0.622161865234375,-1.838705006134688,1.058802541962727,2.717230184426681
529629.2421134167,-0.7217254638671875,-0.7079010009765625,0.2006378173828125,-0.4815208303750469,0.3590676181887675,3.474911765095238
529629.3014924166,0.006744384765625,-0.2539215087890625,0.095703125,-0.2716173974738356,0.9059647922675156,-0.1284368025234694
529629.3608684167,-0.2493896484375,-0.244598388671875,0.032958984375,0.1030073425387388,-0.3325462621571044,-2.273045807270109
529629.4202554167,-0.232391357421875,-0.4928741455078125,0.1835174560546875,0.4210100819829205,-1.01449526459097,-3.362184949842147
529629.4796334167,-0.3238525390625,-0.796905517578125,0.3464508056640625,0.9641122515083057,-1.859286713987147,-4.649811618986662
529629.5389844168,-0.45068359375,-1.299423217773438,0.5412750244140625,1.853398198500873,-0.9594160332420599,-5.440628782570204
529629.5983724167,-0.2954559326171875,-1.737350463867188,0.4497833251953125,1.870437635787418,0.6339820090921211,-5.952777563377816
529629.6577384167,-0.274688720703125,-1.545394897460938,-0.500396728515625,1.784188500724112,2.026992359416053,-2.200229124112945
529629.7171254167,2.353515625,-0.76251220703125,0.837249755859375,0.0710909547707932,-1.314618339424686,1.319198443867405
529629.7765054167,-0.33245849609375,-0.814453125,0.405487060546875,0.1451353551904843,-2.912445484967778,2.692685959188293
529629.8358924167,-0.31146240234375,-0.8312835693359375,0.399169921875,0.1114793905984989,-1.004300151305928,2.071516950732761
529629.8952704167,0.4139251708984375,-0.9615936279296875,0.5116424560546875,0.001587776641905242,0.8897597233504924,0.5423207980615559
529629.9546474167,0.18408203125,-0.854339599609375,0.4870147705078125,-0.3108670656194233,0.7926446247235539,0.6285182677997145
529630.0140244167,0.1868743896484375,-0.837860107421875,0.4360504150390625,-0.4288898430162469,0.5990269545203951,0.6806965177732011
529630.0734084167,0.029022216796875,-0.951324462890625,0.270263671875,-0.5656405018307258,0.5204602402536405,0.8829545478170129
529630.1327904167,0.083038330078125,-0.9476470947265625,0.355804443359375,-0.6094095543461781,0.4996801268999702,0.9215357625289908
529630.1921654167,-0.01287841796875,-1.092086791992188,0.3547210693359375,-0.6479353753074824,0.2444592796255345,1.124722703161022
529630.2515464167,0.3246307373046875,-1.357192993164062,0.1508636474609375,-0.9503724708123689,0.7821520363447507,1.760321251034822
529630.3109294167,0.5179443359375,-1.793624877929688,0.56378173828125,-1.519813836150856,0.939859376093172,2.711230082490732
529630.3703104167,0.3091278076171875,-1.909454345703125,0.5200653076171875,-2.010162512907297,2.002124293789111,2.764301556693832
529630.42968025,-0.450653076171875,-0.579437255859375,0.06982421875,-0.9979290710301318,0.138773063346285,3.619931539094413
529630.4890552501,0.00787353515625,-0.2245635986328125,0.159698486328125,-0.3603981334693711,-0.9403374135088413,-0.9821471784103223
529630.5484372501,-0.167816162109375,-0.2247161865234375,0.204498291015625,0.6979522037402605,-1.499264086231477,-3.664752540240447
529630.60781325,-0.2031097412109375,-0.5972747802734375,0.2360687255859375,0.9314730818205126,-1.107688592196657,-4.974691172997646
529630.66718725,0.0503997802734375,-1.236358642578125,0.21533203125,1.969176996363196,-0.4067459248683471,-6.229042709586057
529630.7265622501,-0.4261932373046875,-1.663681030273438,0.2257232666015625,2.430071111463361,0.09340238575125905,-5.736569895544169
529630.78593325,-1.136978149414062,-1.833511352539062,-0.5465850830078125,1.025670154841051,-0.2814239555558343,-0.9695829170195465
529630.84530825,2.064682006835938,-0.2458343505859375,1.534881591796875,-0.62493844666243,-1.742248507245326,3.085524057895919
529630.90466625,0.06488037109375,-0.6266021728515625,0.1669921875,0.06242449595145734,-1.062115248042677,3.705090908639659
529630.9640432501,-0.7408294677734375,-0.84271240234375,0.4053802490234375,-0.3509929137636472,0.02011139360395138,1.450304266435352
529631.0234402501,0.7128143310546875,-0.9527435302734375,0.558319091796875,-0.1097073232091602,1.896855927484895,0.1271819210178241
529631.0828062501,0.265533447265625,-0.82525634765625,0.26409912109375,-0.6073701055833953,0.7382274552216378,1.107569282579822
529631.1421862501,0.0309295654296875,-0.9612884521484375,0.337615966796875,-0.3562904738040329,0.4615332737617842,1.141650287681784
529631.20156325,-0.136444091796875,-1.004058837890625,0.270782470703125,-0.5313752059813303,-0.0610082268837532,1.588616070280835
529631.26092825,0.0050811767578125,-1.235092163085938,0.1932373046875,-0.5708661565216793,0.5898270645347163,1.280833477835941
529631.3203002501,0.2526397705078125,-1.20037841796875,0.2483673095703125,-0.9101528793977742,0.7678948034490115,2.087728677552509
529631.37966825,0.51446533203125,-1.831680297851562,0.63433837890625,-1.217563694554493,0.6676337126263624,2.666409081344699
529631.43902025,0.515625,-2.062225341796875,0.5677490234375,-2.235759421480128,1.601140384255259,3.122498853838361
529631.49839025,-0.7071075439453125,-0.7098388671875,0.2685699462890625,-0.484146707209865,0.2577236860668922,3.548509819716232
529631.55773725,0.11444091796875,-0.197265625,0.068878173828125,0.1548090215340881,0.6242715911254743,0.4877627473379746
529631.61713225,-0.0328369140625,-0.219512939453125,0.0114288330078125,1.292958850279072,-0.2603093491692501,-2.837148067255205
529631.67650525,-0.1346588134765625,-0.6070709228515625,0.1325531005859375,1.88683631651569,-0.8753672018713772,-5.537471439817627
529631.73588125,-0.04541015625,-1.3468017578125,0.2532501220703125,2.681204006464525,-0.755609907656585,-6.635232832734905
529631.79525125,-0.5640106201171875,-2.2462158203125,-0.026214599609375,2.811556154443979,-0.1765268339075753,-6.585067932545519
529631.85462925,-1.615585327148438,-2.455245971679688,0.0378875732421875,0.8020359959916094,-1.21649603327348,-0.8165406365526169
529631.91400625,0.340423583984375,-1.520751953125,-0.2769775390625,-0.5610870289989083,1.862092886827764,3.651220486109537
529631.9733862501,-0.2830963134765625,-0.8466796875,0.8063201904296875,0.2945402902405836,-2.117399221573191,2.782047264301466
529632.0327642501,0.4867401123046875,-0.9857940673828125,0.2798919677734375,-0.07310057612936699,1.950394520143194,-0.1771731831041375
529632.09213825,-0.0469818115234375,-0.73101806640625,0.591033935546875,-0.4157897536141472,0.08527708126542728,1.711766498040497
529632.15151925,0.3480987548828125,-0.9914093017578125,0.207305908203125,-0.4470350247873928,0.6273736411631985,1.000145353689296
529632.2108932501,-0.065673828125,-0.9124603271484375,0.3682861328125,-0.4467138475599293,-0.178297836032478,1.56969750652913
529632.27026825,0.0220794677734375,-1.047805786132812,0.3088531494140625,-0.4883049669359147,0.4640076167305768,1.136231820127909
529632.32964325,0.158050537109375,-1.175155639648438,0.42840576171875,-0.5942215466494561,0.3608862908971826,1.214064833514347
529632.38902425,0.2558441162109375,-1.28057861328125,0.296234130859375,-0.941740633087204,0.7973251303393681,1.675951775068893
529632.44838025,0.7855682373046875,-1.692428588867188,0.5290679931640625,-1.663573402322205,1.14668472740647,2.499964709008054
529632.5077672501,0.15875244140625,-1.89630126953125,0.654876708984375,-2.08861977125325,1.622299731748157,2.919813120123482
529632.56714125,-0.412841796875,-0.591094970703125,0.004302978515625,-0.6947329746145727,0.2783911477064521,3.288103797799412
529632.62651125,0.2910919189453125,-0.27532958984375,0.062103271484375,0.1501767191340043,-0.1870058401648191,-1.651077850487553
529632.68588725,-0.1176300048828125,-0.338134765625,0.126495361328125,1.382593395720087,-1.704236942690516,-3.420212034201665
529632.7452642501,-0.1576690673828125,-0.75164794921875,0.2066497802734375,1.468693926394567,-1.906025723750256,-4.83985639227137
529632.8046412501,-0.2376708984375,-1.339431762695312,0.4283447265625,1.87279133755883,-1.482122649875182,-6.282243613418134
529632.86401325,-0.7413177490234375,-1.965042114257812,-0.0457916259765625,2.464677291932287,0.912938279581888,-5.802087919417862
529632.92339525,-1.754058837890625,-1.869400024414062,-0.179046630859375,1.89551768903713,-0.470198401000575,-2.45402464757197
529632.98277725,0.4397125244140625,-1.979156494140625,-0.3586578369140625,0.3425634762813284,-2.101712936436515,-1.239744630641545
529633.04215925,-0.1312713623046875,-0.7237548828125,0.84173583984375,0.2298478463048148,-1.661485484027583,2.166226415947031
529633.10154425,0.3109588623046875,-0.9674835205078125,0.0170440673828125,0.05371223076137212,1.533740837071425,0.08969420024943271
529633.16090525,0.05938720703125,-0.838226318359375,0.5997467041015625,0.03492735769638921,-0.3649558673589327,1.28738645201419
529633.22030625,0.3262176513671875,-0.9639129638671875,0.2428131103515625,-0.4499623714576079,0.9204417359531863,0.9798563272406361
529633.27968425,0.013641357421875,-0.87969970703125,0.374847412109375,-0.419851606908736,0.1001806633577287,1.470706743546448
529633.33906125,-0.031463623046875,-0.983428955078125,0.26324462890625,-0.447241686087983,0.3791108348688129,1.283215941747126
529633.39844625,-0.017333984375,-1.173721313476562,0.3934478759765625,-0.5757770255717853,0.2244309766475936,1.410638612527493
529633.45783025,0.19970703125,-1.36090087890625,0.3683624267578125,-1.004324386071848,0.6687453160653615,2.137809954483667
529633.51721125,0.9688262939453125,-1.898834228515625,0.641937255859375,-1.748887767842893,1.86827621424671,2.856501791529029
529633.57657925,0.1514739990234375,-1.678070068359375,0.8107452392578125,-1.911401314410581,1.768232437369011,3.266835260701821
529633.63596725,-0.9055328369140625,-0.1525726318359375,-0.1354827880859375,-0.0008799084241621803,2.213539336925051,2.359997484228978
529633.6953282501,-0.0539703369140625,-0.15618896484375,-0.0937347412109375,0.4228226294208284,0.194566288183445,-0.5679420056447723
529633.75471625,-0.1339263916015625,-0.3813018798828125,0.079010009765625,1.490991508937364,-1.248804970986103,-3.18109478940672
529633.8140902501,-0.1977081298828125,-0.8701934814453125,0.1988983154296875,1.980857088272065,-1.526925541525803,-5.658147258292387
529633.8734582501,-0.6522674560546875,-1.47283935546875,0.4929962158203125,2.134404836713892,-1.276029135229438,-5.95183427171971
529633.9328252501,-1.218917846679688,-1.952774047851562,0.044158935546875,2.34714400354382,0.3777832490654083,-5.562806623899768
529633.99221025,-0.54034423828125,-1.856887817382812,-0.2361602783203125,0.517349934416537,-0.003071690001297393,0.191071688201043
529634.05158225,0.3552703857421875,-1.115249633789062,0.25640869140625,0.8245535556404473,-2.193884675448049,4.545071623842717
529634.1109512501,-0.7288970947265625,-0.756866455078125,0.9962005615234375,0.9206915404634357,-2.177856174111298,4.102591137151578
529634.1703042501,0.810821533203125,-0.95599365234375,0.1639556884765625,-0.2047230519487892,1.827091226936961,0.01385589451946426
529634.22969525,-0.04400634765625,-0.805389404296875,0.4319305419921875,-0.2436600649824017,-0.04081134580881027,1.324184414060251
529634.28904425,0.0489654541015625,-0.9162139892578125,0.420989990234375,-0.2096658789319763,0.5922838306403145,0.8354288402678949
529634.34842125,-0.07452392578125,-0.9490509033203125,0.3621673583984375,-0.3657825125612933,0.9064249865038813,0.7423545559629336
529634.40779125,0.1229400634765625,-0.9969329833984375,0.291290283203125,-0.4088729916309934,1.021632802628491,0.6589890917279652
529634.46716525,-0.0071258544921875,-0.97906494140625,0.4343109130859375,-0.4104176250632393,0.476987863883623,0.9463947734082265
529634.5265402501,0.0403594970703125,-1.222564697265625,0.227813720703125,-0.6486491024796236,0.8074134508646973,1.22936522660907
529634.58593225,0.2125091552734375,-1.491470336914062,0.30438232421875,-1.045606578761384,0.9692345755489641,2.224011152647352
529634.64530825,1.250106811523438,-1.85137939453125,0.178009033203125,-1.353929792907564,1.351730021847159,2.605503119846805
529634.70467925,-0.0369873046875,-1.208251953125,0.8748321533203125,-1.747742075941941,0.1326461949424487,3.998043422238338
529634.7640512501,-0.7118377685546875,-0.0508880615234375,0.392333984375,0.1978995006037882,0.4497501175187286,2.050186095665662
529634.8234202501,-0.0512847900390625,0.00396728515625,-0.0082550048828125,-0.3800197717488569,-0.125363514625518,-1.223513729061948
529634.88279125,-0.2448272705078125,-0.3603363037109375,0.319580078125,0.3084771448571862,-1.505326772453043,-4.127468257526226
529634.9421642501,-0.101165771484375,-0.582061767578125,0.38836669921875,0.5262827093448808,-1.483243041745778,-5.050679681013095
529635.00153425,-0.184539794921875,-1.119186401367188,0.51617431640625,1.824515151214528,-1.950725018434473,-5.576799937531481
529635.06089125,-0.6729736328125,-1.903228759765625,0.4046783447265625,2.002995946413894,-1.400777725959257,-6.16902890705334
529635.12025525,-1.279144287109375,-1.958724975585938,-0.5901947021484375,1.77975167434804,1.533236966993182,-2.047689648459822
529635.1796432501,1.056015014648438,-3.173858642578125,-2.697433471679688,-0.4234367543682007,-1.683066942553258,-2.835044169994042
529635.23901625,-0.5764923095703125,-0.8526153564453125,1.079696655273438,0.2108451266626634,-1.799235360883059,2.687896530283894
529635.29838725,0.103912353515625,-0.96710205078125,-0.0746612548828125,-0.5455549408893481,0.07647799702380548,1.389901109751264
529635.35776525,0.08221435546875,-0.8724365234375,0.5045013427734375,-0.002463424008323295,0.07691661965534154,1.262241950266098
529635.41714025,0.32513427734375,-0.867279052734375,0.4649810791015625,-0.1961966754027915,0.3468783298794748,1.44996924077022
529635.47651025,-0.0154266357421875,-0.9676971435546875,0.2849578857421875,-0.4278027406592766,-0.2163195205994302,1.723615434362477
529635.53588825,-0.1468505859375,-0.9380645751953125,0.219390869140625,-0.5277868627285575,0.255029898624277,1.524374765833725
529635.5952642501,-0.1468658447265625,-1.254852294921875,0.3023681640625,-0.51711557624061,0.4984343001420312,1.539814708569569
529635.65463925,0.2187347412109375,-1.245376586914062,0.387481689453125,-0.6647921197432478,1.050889225099666,1.608263807539003
529635.71401825,0.8420257568359375,-1.930435180664062,0.618316650390625,-1.268928082498851,1.550283328498561,2.620406701939106
529635.7733922501,0.2147369384765625,-1.78948974609375,0.822998046875,-1.847284645902487,1.426411184083488,3.929362628254066
529635.83276525,-0.6639404296875,-0.5856781005859375,-0.0541534423828125,-0.06332997072208428,2.692687557084947,1.728998748189964
529635.89214325,-0.18646240234375,-0.1774749755859375,0.014251708984375,0.33905183206795,-0.2335608254966032,-0.8350623893019
529635.9515202501,0.07373046875,-0.0857391357421875,-0.13287353515625,1.586569164667,-0.4034340177367245,-3.551716798300906
529636.0109002501,-0.1410369873046875,-0.6865081787109375,0.08282470703125,2.169071204623453,-0.9690388332088432,-4.488526322313719
529636.0702832501,-0.0817718505859375,-1.343490600585938,0.196929931640625,2.17467183239589,-1.119472281071931,-6.259456009234762
529636.1296632501,-0.6688995361328125,-1.966552734375,0.1405029296875,2.391905882513653,0.08145810826225366,-6.143629807105036
529636.18904225,-1.55877685546875,-1.839874267578125,-0.3690643310546875,0.1324768178971197,-1.04988681126536,0.2674607356444399
529636.24841925,2.717514038085938,-2.140548706054688,-1.441970825195312,-0.5699723996598487,-1.252287853059709,3.974434499174785
529636.3077902501,-0.301849365234375,-0.8257293701171875,0.80914306640625,-0.09933271286664749,-1.091720544616651,3.301365807395789
529636.36714925,-0.622711181640625,-0.775787353515625,0.1389312744140625,-0.5382152689250898,0.2500846747961089,1.076746388755463
529636.42653225,0.389556884765625,-0.890594482421875,0.5073699951171875,-0.05173296943922524,1.510629658815609,-0.03800810244539287
529636.48592425,0.212493896484375,-0.9330902099609375,0.290252685546875,-0.4366279238795812,0.3498642660936717,1.101274635027311
529636.54529325,-0.11181640625,-0.921112060546875,0.3328857421875,-0.4766381908324956,0.2507107839683865,1.41252679374036
529636.6046662501,-0.1166229248046875,-0.993743896484375,0.3259429931640625,-0.5011451318156228,0.4502542539130806,1.138509355492145
529636.6640512501,0.131744384765625,-1.190536499023438,0.2807769775390625,-0.6056901835677734,0.649805180708827,1.202344794189126
529636.7234282501,0.1058349609375,-1.254013061523438,0.32073974609375,-0.8975417463718129,0.5142910275884719,2.250417460119924
529636.78280625,0.8005828857421875,-2.016693115234375,0.612396240234375,-1.788943841166557,1.694273524420312,2.627102421551784
529636.8421742501,0.047515869140625,-1.5723876953125,0.8448028564453125,-2.207494760198899,2.192066535371851,3.033918387556799
529636.90153325,-0.8709869384765625,-0.4906463623046875,0.0343475341796875,-0.4642188054050201,0.8168506285035021,2.858042696535748
529636.9609072501,-0.0888671875,-0.1017608642578125,0.0516357421875,-0.07767748477877717,-0.9155689501066683,-1.819019984621258
529637.02028525,-0.162994384765625,-0.09368896484375,0.0433349609375,0.5998951450357609,-0.9544593578212045,-2.874581459537359
529637.07966225,-0.1134796142578125,-0.6712799072265625,0.058502197265625,1.493957205127276,-0.8238752485108041,-5.129983291953475
529637.13903125,-0.1996002197265625,-1.278671264648438,0.24285888671875,2.212948381479163,-1.585725475233663,-6.106134096853374
529637.1984202501,-0.547210693359375,-1.805313110351562,0.2662811279296875,2.35146311819971,0.1168142348941456,-5.880761426444329
529637.25779125,-1.197280883789062,-1.761825561523438,-0.4733428955078125,1.95998429691246,0.03119493742864316,-3.2919941435198
529637.3171652501,2.583984375,-0.2783050537109375,1.317474365234375,0.2229641075191779,-0.0913775843744718,2.384465010427972
529637.37653825,-0.151947021484375,-0.4508819580078125,0.336151123046875,0.3783712750340978,-1.649061304910145,3.273628984642614
529637.43591425,-1.450424194335938,-0.58184814453125,0.2431793212890625,0.04365134079527078,-2.647531530273781,3.549897326644164
529637.4952902501,1.017501831054688,-0.943634033203125,0.572784423828125,0.1724194405583461,2.023425321452001,-0.7321322784347735
529637.55466325,0.0525054931640625,-1.001007080078125,0.2321014404296875,-0.2284038803617738,-0.1968454214443348,1.346165080433329
529637.6140372501,0.1307373046875,-0.9590606689453125,0.325103759765625,-0.3283091728627883,0.02926867301218884,0.9257909613187195
529637.67339325,-0.032073974609375,-0.9300537109375,0.3725433349609375,-0.3745384535932558,0.142370461346764,0.722000548383676
529637.73275025,-0.0312042236328125,-0.9108123779296875,0.14923095703125,-0.4945442207377524,0.4602706690889776,0.8282249895192305
529637.7921372501,-0.095489501953125,-1.086212158203125,0.3008270263671875,-0.541650214099074,0.6021796046188309,0.5164604386124505
529637.85152225,0.0227813720703125,-0.901580810546875,0.0225830078125,-0.5025693903665972,0.2639834462091234,0.2484052854127049
529637.91089325,-0.2151641845703125,-1.033340454101562,0.114715576171875,-0.2957072874302563,-0.1654819059186897,0.04965304062787335
529637.97026925,-0.0929412841796875,-0.709625244140625,0.2271881103515625,-0.1388481644890252,0.08793917709107049,-0.440185907095927
529638.02965125,0.053924560546875,-1.008193969726562,0.2315521240234375,-0.03394039019640584,0.2256179475454419,-0.3329340184118199
529638.0890272501,0.0316314697265625,-1.0289306640625,0.1690216064453125,-0.06634360381161795,0.1638661660853386,0.005622465693375288
529638.14839925,0.011077880859375,-1.024139404296875,0.0345001220703125,0.02791525454621057,0.05087170314269361,-0.004811799457555168
529638.20778325,-0.076873779296875,-0.8971710205078125,0.1989288330078125,0.08525684124114269,-0.2065100330402324,0.1057104510451693
529638.26716325,-0.1111907958984375,-0.9027557373046875,0.2428436279296875,0.2231713014519861,-0.08497747564279337,0.07885247145172013
529638.32654425,-0.0939178466796875,-0.9537200927734375,0.123443603515625,0.2759807206038214,0.04584045921131591,-0.008904012788570925
529638.38592225,-0.00811767578125,-1.000350952148438,0.2790069580078125,0.3153779278737996,0.02963778713927383,-0.1472738735458179
529638.44530225,-0.0107421875,-0.9520111083984375,0.1775665283203125,0.2408914427131554,0.03824831957571802,-0.1601944658904463
529638.50468725,-0.089599609375,-0.9004058837890625,0.25262451171875,0.2063007085785521,-0.06145270846968743,-0.03120266059580439
529638.5640742501,-0.0042724609375,-0.9609222412109375,0.2616424560546875,0.1958509970932992,-0.02361478201795062,-0.08172229384238952
529638.62345125,-0.0316314697265625,-0.9496307373046875,0.2372589111328125,0.1475215475271953,-0.09871006580378697,0.06191423428659816
529638.6828382501,-0.0680694580078125,-0.953826904296875,0.3268890380859375,0.1175513978838796,-0.1302482846969413,0.08996158162287667
529638.7422192501,-0.0374603271484375,-0.953399658203125,0.31365966796875,0.07558424016197489,-0.006899185119959275,-0.03399738184373354
529638.8015982501,-0.053955078125,-0.9476470947265625,0.30224609375,0.06095389839751559,0.05594449238707654,-0.02084083342652409
529638.8609792501,-0.0437164306640625,-0.9355316162109375,0.2984771728515625,0.01184680579310848,0.0285546795239386,-0.01096849526560035
529638.92035725,-0.0720367431640625,-0.9587554931640625,0.29705810546875,-0.05410531333826782,0.04258181530149496,-0.009022257140970442
529638.9797292501,-0.0362091064453125,-0.938140869140625,0.2638397216796875,-0.1100098583089932,0.1470182100811703,-0.1135928752395858
529639.03910525,-0.0264739990234375,-0.9440155029296875,0.3002777099609375,-0.1877885432091934,0.1447449357746786,-0.03579341768288298
529639.0984732501,0.1270599365234375,-0.9664306640625,0.293731689453125,-0.2490769346396229,0.2433732425330002,-0.07741436446307734
529639.1578412501,0.050872802734375,-0.98529052734375,0.29132080078125,-0.2582408719505855,0.1389365814372159,0.2477671920155219
529639.21723025,0.038787841796875,-1.002120971679688,0.303192138671875,-0.4820918121127599,0.1292088529234834,0.6378893990434854
529639.27661025,0.218597412109375,-1.273849487304688,0.386810302734375,-0.9242191636433547,0.6194219747804399,1.263287507310063
529639.33599425,0.8042144775390625,-1.982894897460938,0.0771484375,-1.258232827561093,1.247099216307908,1.972491566655908
529639.39537125,0.141387939453125,-1.323898315429688,0.5636444091796875,-1.042510387678058,0.6230678423127584,3.462144038197181
529639.45473525,0.2210540771484375,-0.1962432861328125,0.510528564453125,-0.08876582229343109,-0.3029026160634324,2.144693693269304
529639.51413525,0.271759033203125,0.0178985595703125,0.202911376953125,0.4678731950528268,-0.03374251732741296,-3.09051961546869
529639.57350425,0.1558685302734375,-0.1983489990234375,0.1095428466796875,1.196625389432072,-0.3465654084513905,-4.593910802441463
529639.6328742501,-0.1524658203125,-1.472061157226562,0.0628814697265625,2.687543927755568,-1.005514020130786,-6.65912032244848
529639.69224425,-0.6592254638671875,-2.476486206054688,-0.0848388671875,1.855412613549409,-0.9161449918504525,-4.865519145167592
529639.75161925,1.4256591796875,-0.570098876953125,1.887161254882812,1.143911844079479,-2.461131825573064,0.4583103162105703
529639.8109892501,0.3719940185546875,-1.07794189453125,0.1333465576171875,-0.4077949440217293,2.111442262846902,1.843972206138647
529639.87035825,-0.5455322265625,-0.73828125,0.36932373046875,-0.2081894224236364,-1.549733119417351,1.916434156238612
529639.92973125,0.7337799072265625,-0.9550018310546875,0.43756103515625,-0.007595335428905987,0.287630985108482,0.6928559786782849
529639.9891012501,0.1756744384765625,-0.903228759765625,0.4251861572265625,-0.06900996069500528,-0.2754717905195072,1.278889370240183
529640.04847325,0.0828094482421875,-0.9298095703125,0.346405029296875,-0.220580578343557,0.3164599702246988,1.000483575147736
529640.10784225,0.053253173828125,-0.9679412841796875,0.2845458984375,-0.3350927767914382,0.4138781365836883,0.9236764114131966
529640.16721825,0.1568756103515625,-0.929473876953125,0.27581787109375,-0.4601921058368203,0.5423692675933953,0.9946816123968892
529640.2265932501,0.101318359375,-0.9462432861328125,0.4441986083984375,-0.3933568824879737,0.2842229378615076,1.264035855576375
529640.28596625,0.0160369873046875,-1.123321533203125,0.310699462890625,-0.7784254750314028,0.4245747231019916,1.751555722622935
529640.3453422501,0.2101898193359375,-1.875564575195312,0.42327880859375,-1.025935938317841,0.6044355683782371,2.187540759415371
529640.4047205,1.068069458007812,-1.829696655273438,0.6910858154296875,-1.863644977111062,1.498317598780063,3.277296690095871
529640.4640795001,0.0587310791015625,-1.150970458984375,0.471954345703125,-1.874947432777358,1.428432523350858,3.908009402633811
529640.5234665,-0.5204925537109375,-0.1593475341796875,0.1701812744140625,-0.676224005038522,1.908258518008178,2.330007094561378
529640.5828375,-0.218505859375,-0.0050811767578125,-0.131439208984375,0.1093904070394407,-1.457760851171464,-1.793764695371819
529640.6422255001,-0.1394195556640625,-0.22344970703125,0.0216827392578125,1.56594457992099,-1.760169717168796,-4.286086132051346
529640.7016105,-0.24591064453125,-0.8316650390625,0.1702880859375,1.946369684787757,-1.583732099157738,-5.362282311725599
529640.7609865001,-0.2385406494140625,-1.462921142578125,0.15594482421875,2.149642911839107,-0.7540514257866706,-6.15371146972764
529640.8203415,-0.247528076171875,-2.013351440429688,0.0072784423828125,2.340514862958394,-0.7765135916848349,-4.890282814879803
529640.8797295,-1.23260498046875,-1.570053100585938,-0.101531982421875,-0.1084955849131741,-2.228054097498201,0.9241499214550126
529640.9391205,0.6149749755859375,-3.10040283203125,-1.901779174804688,0.733059591126339,-1.570208300826207,1.720974111193337
529640.9984855,-0.4433441162109375,-1.232925415039062,0.7703857421875,0.1768434837611857,-0.3395117599882067,2.909472065610705
529641.0578845,-0.1674652099609375,-1.194473266601562,-0.1194610595703125,-0.09152006349279104,0.693196596981706,-0.2198045332019079
529641.1172475,0.3819580078125,-0.8266143798828125,0.5345916748046875,0.1452093910687885,0.5053912758576451,-0.4745039335349061
529641.1766195,0.0489959716796875,-0.8445587158203125,0.3479156494140625,-0.2533129586695029,0.1183367640893439,0.8097261399553222
529641.2360045001,0.162811279296875,-0.9182891845703125,0.2610015869140625,-0.1836015213433708,0.4185019168682839,0.4109981941808766
529641.2953625,0.11065673828125,-0.89984130859375,0.3299102783203125,-0.1062601274941616,0.09745891272366773,0.4167080115580065
529641.3547405,0.1537628173828125,-0.953948974609375,0.341400146484375,-0.1275057614063777,0.1035426379178448,0.3761267628673791
529641.4141155001,-0.0097198486328125,-0.8829345703125,0.38525390625,-0.2144542425719388,0.1617015487513222,0.1931755854622056
529641.4734895,0.2353363037109375,-0.963409423828125,0.2964935302734375,-0.2582712319870125,0.099350023413733,-0.02679832478503134
529641.5328605,0.0923004150390625,-0.912078857421875,0.337249755859375,-0.241519948730414,-0.172819979986294,0.2011171318328219
529641.5922545,0.03924560546875,-0.9264068603515625,0.2420196533203125,-0.1996854164307953,-0.1095960030755949,0.1556713530950558
529641.6516325,0.1635894775390625,-0.9734954833984375,0.2903289794921875,-0.1502869740031336,-0.03343225906041872,0.01308943675773946
529641.7110095001,0.0764923095703125,-0.9170684814453125,0.250640869140625,-0.132220621800254,-0.02372024319711776,0.1579531495170357
529641.7703875001,0.0521240234375,-0.9359893798828125,0.23797607421875,-0.06943606646941797,-0.03132649758649307,0.1601981943159725
529641.8297605,0.0722198486328125,-0.956634521484375,0.268585205078125,-0.07563537285490442,0.01123268084573621,0.165055267512059
529641.8891125,0.0770416259765625,-0.9624176025390625,0.239105224609375,-0.06489590944305088,0.03136644500284426,0.1627063594306091
529641.9484995001,0.027435302734375,-0.9531707763671875,0.2781219482421875,-0.01962589933722994,-0.08357771817384772,0.1554684202199917
529642.0078705,0.0736236572265625,-0.9727783203125,0.2754364013671875,-0.03236699462438703,-0.07270163459807312,0.1798581821151554
529642.0672555,0.0198822021484375,-0.96234130859375,0.2531280517578125,-0.02022564321471578,0.008009723294522316,0.05852669338001737
529642.1266235,0.075836181640625,-0.9754791259765625,0.2670440673828125,-0.01883866891900252,0.07457942948268799,0.0172887091645764
529642.1860065,-0.0240020751953125,-0.9576263427734375,0.2509918212890625,-0.0381737510651958,0.03978496352469374,0.04111334827642527
529642.2453835,0.0098114013671875,-0.9419403076171875,0.2501220703125,-0.0430606516654912,0.1307329800153358,-0.008923720180637511
529642.3047575001,0.0298004150390625,-0.9561614990234375,0.2295074462890625,-0.03362933298108459,0.09896466400399855,0.006353769728711047
529642.3641285,-0.0196990966796875,-0.94244384765625,0.2117156982421875,-0.07036710758650966,-0.0095921736142474,0.09387216736754903
529642.4235025001,0.0004730224609375,-0.9551849365234375,0.22784423828125,-0.04620318175178471,-0.08765421885443202,0.04464736304296042
529642.4828725001,0.014739990234375,-0.953094482421875,0.2293243408203125,-0.04091254593023329,-0.09740831266295623,0.02450534308647312
529642.5422375001,0.018310546875,-0.974334716796875,0.236114501953125,-0.06552121966700149,-0.121600734321345,0.04394695167626957
529642.6016065,-0.0249786376953125,-0.9516448974609375,0.223541259765625,-0.0651824655763434,-0.05073188718546445,0.007990548534673746
529642.6609725,0.0015411376953125,-0.96575927734375,0.2203826904296875,-0.0416321320567727,-0.03123302063223129,-0.06256298032814146
529642.7203415,0.0046234130859375,-0.9586944580078125,0.225372314453125,-0.04471021364468628,-0.003453587301614756,-0.0458164907615052
529642.7797065,-0.00946044921875,-0.962188720703125,0.213775634765625,-0.05432955150205249,-0.008512794424438285,-0.02018356526949253
529642.8390845,0.046966552734375,-0.9622039794921875,0.21337890625,-0.04678162034054991,0.009291502727177454,-0.04702396799974713
529642.8984495,-0.00457763671875,-0.9566802978515625,0.196990966796875,-0.06067373385083925,0.002194977370443308,-0.01284336067301613
529642.9578075,0.001495361328125,-0.964447021484375,0.2086639404296875,-0.04357570702031253,0.01251552554282738,-0.04172853848823357
529643.0171955001,0.0127716064453125,-0.9578094482421875,0.2041015625,-0.02979810943689659,0.0009840380227842786,-0.01921097883939559
529643.0765695,0.018951416015625,-0.964691162109375,0.20538330078125,-0.0286050132685411,0.02739007917924695,-0.03655614701908167
529643.1359465,0.0301971435546875,-0.9655914306640625,0.19647216796875,-0.01377386915788982,0.01146624007333616,-0.02997813912658595
529643.1953255,0.0223541259765625,-0.9610748291015625,0.2012786865234375,-0.01271020261851217,0.01148168640765862,-0.02784601235786852
529643.2546825,0.0256195068359375,-0.9696197509765625,0.2049713134765625,-0.003260241806475003,-0.01717419323770299,-0.02113005272090669
529643.3140695001,0.0267181396484375,-0.9636688232421875,0.1945953369140625,-0.0159747054827313,-0.002179264720011841,-0.01170832141642436
529643.3734375,0.0166778564453125,-0.9631195068359375,0.20159912109375,-0.006423011917053106,-0.008544752357519236,-0.007370032000685284
529643.4328065,0.018524169921875,-0.963226318359375,0.2013702392578125,-0.01069152651223211,-0.009510414568781968,0.002231728993486402
529643.4921815001,0.0063629150390625,-0.9618682861328125,0.1954193115234375,-0.004352670485625507,-0.02127120025868089,-0.004030960625943935
529643.5515525,0.0488128662109375,-0.96697998046875,0.1913909912109375,0.001082308667008203,-0.0003107908992122471,-0.03517077062002245
529643.6109265001,0.04052734375,-0.9620819091796875,0.195159912109375,-0.003380616687746585,-0.04486947067787302,-0.02935176363819932
529643.6702975,0.00262451171875,-0.96868896484375,0.21173095703125,0.008059790723015806,-0.1031932311828263,-0.0127144636762563
529643.7296585001,0.03216552734375,-0.98114013671875,0.1934051513671875,0.01962376880835787,-0.1361700896968415,-0.01341114661742103
529643.7890385001,0.033203125,-0.971527099609375,0.192626953125,-0.02213939077404672,0.04435894269690483,-0.03780623483476486
529643.8484055001,0.0238037109375,-0.9716644287109375,0.21185302734375,-0.02818423381630858,0.120894197684147,-0.03545572885666093
